# session=2026-08-20-16-08-57
# platform=Android
# device_orientation=3
# unify_motion_space=1
# ring_capacity=140
# gyro/rotation-rate is rad/s; gravity is in g units when unify_motion_space=1
# is_mark=1 marks the exact sample at the OK press; rows before it are the preceding ~2s
step,label,t,tilt_x,tilt_y,tilt_z,gyro_x,gyro_y,gyro_z,grav_x,grav_y,grav_z,acc_x,acc_y,acc_z,gmag,gz,pitch_deg,roll_deg,yaw_rate,is_mark
0,flat,11.3732,-1.48351,-3.13125,0.06386,0.36419,-0.72634,0.29251,-0.60757,0.07851,-0.02095,2.17224,-0.17858,0.03713,0.61298,-0.03418,0.00000,0.00000,-0.46401,0
0,flat,11.3883,1.48359,-0.06151,-0.07505,0.19119,0.23232,-0.82312,-0.84400,0.07339,-0.04680,0.27751,-0.03071,0.08169,0.84848,-0.05516,0.00000,0.00000,-0.12468,0
0,flat,11.4073,1.59910,0.01110,0.17300,0.19119,0.23232,-0.82312,-0.95001,0.05155,-0.03003,-0.13366,-0.24092,0.01801,0.95188,-0.03155,0.00000,0.00000,-0.15226,0
0,flat,11.4183,1.52285,-0.02116,0.02143,-0.08653,0.02516,-0.04586,-0.91052,0.03588,-0.02598,0.05815,-0.05415,0.04402,0.91160,-0.02850,0.00000,0.00000,0.08873,0
0,flat,11.4378,1.53664,-0.02116,0.02143,0.00689,-0.06244,-0.02330,-0.91307,0.03107,-0.03083,0.05815,-0.05415,0.04402,0.91412,-0.03373,0.00000,0.00000,-0.00822,0
0,flat,11.4535,1.54242,-0.04832,0.02374,0.00182,-0.02043,-0.00650,-0.96041,0.02203,-0.01729,-0.26823,-0.05123,0.07671,0.96082,-0.01800,0.00000,0.00000,-0.00217,0
0,flat,11.4700,1.53874,-0.00474,0.00933,0.00140,-0.00565,-0.00077,-0.97328,0.01084,-0.01062,-0.13663,-0.02120,0.01588,0.97339,-0.01091,0.00000,0.00000,-0.00145,0
0,flat,11.4877,1.54099,-0.01747,0.01408,0.00140,-0.00565,-0.00077,-0.97981,0.00321,-0.00619,-0.05784,-0.01782,0.02432,0.97984,-0.00632,0.00000,0.00000,-0.00141,0
0,flat,11.5036,1.54301,-0.01169,0.01494,-0.00047,-0.00018,0.00000,-0.98672,-0.00345,-0.00262,-0.04022,-0.01190,0.01462,0.98673,-0.00265,0.00000,0.00000,0.00047,0
0,flat,11.5217,1.53920,-0.00599,0.01878,-0.00140,0.00155,0.00027,-0.98879,-0.00850,-0.00031,-0.00987,-0.01026,0.00629,0.98883,-0.00031,0.00000,0.00000,0.00139,0
0,flat,11.5385,1.53692,0.00377,0.01590,-0.00153,0.00102,0.00013,-0.99274,-0.01038,-0.00100,0.01197,-0.00522,-0.00269,0.99279,-0.00101,0.00000,0.00000,0.00152,0
0,flat,11.5564,1.53906,0.00377,0.01590,-0.00100,0.00088,-0.00027,-0.99274,-0.01038,-0.00100,0.01197,-0.00522,-0.00269,0.99279,-0.00101,0.00000,0.00000,0.00099,0
0,flat,11.5722,1.53699,0.00250,0.01774,-0.00100,0.00088,-0.00027,-0.99769,-0.01247,-0.00153,-0.01173,-0.00544,-0.00099,0.99777,-0.00153,0.00000,0.00000,0.00099,0
0,flat,11.5871,1.53810,0.00342,0.02008,0.00047,-0.00032,-0.00025,-0.99797,-0.01470,-0.00219,0.00294,-0.00529,-0.00122,0.99808,-0.00219,0.00000,0.00000,-0.00046,0
0,flat,11.6047,1.53956,-0.00184,0.02118,-0.00020,0.00035,0.00082,-0.99996,-0.01658,-0.00110,0.00483,-0.00450,0.00293,1.00010,-0.00110,0.00000,0.00000,0.00019,0
0,flat,11.6213,1.53776,-0.00464,0.01933,0.00060,-0.00018,0.00015,-1.00137,-0.01752,0.00062,-0.00046,-0.00185,0.00403,1.00152,0.00062,0.00000,0.00000,-0.00060,0
0,flat,11.6367,1.54707,-0.00550,0.01964,0.00047,0.00008,-0.00012,-1.00175,-0.01796,0.00226,0.00309,-0.00165,0.00323,1.00192,0.00225,0.00000,0.00000,-0.00047,0
0,flat,11.6567,1.54633,-0.00550,0.01964,0.00073,-0.00112,-0.00068,-1.00175,-0.01796,0.00226,0.00309,-0.00165,0.00323,1.00192,0.00225,0.00000,0.00000,-0.00071,0
0,flat,11.6688,1.54763,-0.00270,0.02060,-0.00100,-0.00098,0.00078,-1.00235,-0.01863,0.00258,-0.00267,-0.00208,0.00013,1.00252,0.00258,0.00000,0.00000,0.00102,0
0,flat,11.6894,1.54868,-0.00331,0.02285,-0.00100,-0.00098,0.00078,-1.00356,-0.02066,0.00270,-0.00352,-0.00236,0.00063,1.00378,0.00269,0.00000,0.00000,0.00102,0
0,flat,11.7030,1.54105,0.00107,0.01649,-0.00260,-0.00003,0.00052,-1.00367,-0.02004,0.00214,-0.00063,0.00348,-0.00321,1.00387,0.00213,0.00000,0.00000,0.00260,0
0,flat,11.7206,1.54304,0.00302,0.00934,-0.00100,0.00035,-0.00002,-1.00444,-0.01581,0.00021,-0.00108,0.00642,-0.00325,1.00457,0.00021,0.00000,0.00000,0.00099,0
0,flat,11.7378,1.55097,-0.00185,0.02174,0.00193,0.00062,0.00043,-1.00421,-0.01664,0.00031,0.00078,-0.00518,0.00155,1.00435,0.00031,0.00000,0.00000,-0.00194,0
0,flat,11.7536,1.54706,-0.00185,0.02174,0.00193,0.00062,0.00043,-1.00421,-0.01664,0.00031,0.00078,-0.00518,0.00155,1.00435,0.00031,0.00000,0.00000,-0.00194,0
0,flat,11.7693,1.54458,-0.00684,0.02771,0.00233,-0.00005,0.00030,-1.00398,-0.01953,0.00202,0.00167,-0.00825,0.00484,1.00417,0.00201,0.00000,0.00000,-0.00233,0
0,flat,11.7894,1.54028,-0.00548,0.01846,-0.00127,0.00008,0.00070,-1.00387,-0.02001,0.00317,0.00045,0.00149,0.00233,1.00407,0.00316,0.00000,0.00000,0.00127,0
0,flat,11.8064,1.54062,-0.00110,0.01080,-0.00233,0.00048,-0.00010,-1.00415,-0.01781,0.00286,-0.00075,0.00696,-0.00176,1.00431,0.00285,0.00000,0.00000,0.00232,0
0,flat,11.8213,1.54141,-0.00052,0.02059,-0.00060,0.00008,-0.00052,-1.00425,-0.01790,0.00222,-0.00187,-0.00282,-0.00171,1.00441,0.00221,0.00000,0.00000,0.00060,0
0,flat,11.8377,1.54037,-0.00052,0.02059,0.00113,0.00048,-0.00012,-1.00409,-0.01919,0.00221,-0.00187,-0.00282,-0.00171,1.00427,0.00220,0.00000,0.00000,-0.00114,0
0,flat,11.8537,1.54460,-0.00186,0.02682,0.00113,0.00048,-0.00012,-1.00408,-0.02035,0.00216,0.00005,-0.00659,-0.00029,1.00429,0.00215,0.00000,0.00000,-0.00114,0
0,flat,11.8707,1.54461,-0.00039,0.02146,-0.00087,-0.00045,0.00015,-1.00390,-0.02118,0.00179,-0.00123,-0.00039,-0.00139,1.00413,0.00178,0.00000,0.00000,0.00088,0
0,flat,11.8869,1.54100,0.00047,0.01385,-0.00087,-0.00005,0.00002,-1.00386,-0.01954,0.00110,-0.00007,0.00563,-0.00157,1.00405,0.00110,0.00000,0.00000,0.00087,0
0,flat,11.9039,1.55045,-0.00111,0.01506,0.00060,-0.00032,0.00003,-1.00397,-0.01809,0.00095,0.00005,0.00298,0.00017,1.00414,0.00095,0.00000,0.00000,-0.00059,0
0,flat,11.9213,1.54429,-0.00439,0.02193,0.00207,-0.00032,-0.00010,-1.00430,-0.01893,0.00171,-0.00119,-0.00313,0.00270,1.00448,0.00170,0.00000,0.00000,-0.00206,0
0,flat,11.9359,1.54151,-0.00439,0.02193,0.00087,0.00035,-0.00010,-1.00430,-0.01893,0.00171,-0.00119,-0.00313,0.00270,1.00448,0.00170,0.00000,0.00000,-0.00087,0
0,flat,11.9538,1.54749,-0.00476,0.02158,0.00087,0.00035,-0.00010,-1.00415,-0.01987,0.00257,-0.00085,-0.00182,0.00220,1.00435,0.00256,0.00000,0.00000,-0.00087,0
0,flat,11.9690,1.54493,-0.00171,0.01586,-0.00060,-0.00005,0.00057,-1.00440,-0.01914,0.00260,-0.00233,0.00317,-0.00088,1.00458,0.00259,0.00000,0.00000,0.00060,0
0,flat,11.9878,1.54353,0.00083,0.01285,-0.00167,-0.00045,0.00030,-1.00453,-0.01743,0.00177,-0.00123,0.00451,-0.00261,1.00468,0.00176,0.00000,0.00000,0.00167,0
0,flat,12.0018,1.54361,-0.00099,0.01891,0.00047,0.00022,-0.00010,-1.00455,-0.01744,0.00132,-0.00083,-0.00158,-0.00032,1.00470,0.00132,0.00000,0.00000,-0.00047,0
0,flat,12.0198,1.55069,-0.00245,0.02267,0.00020,0.00075,0.00003,-1.00469,-0.01888,0.00156,-0.00032,-0.00391,0.00090,1.00487,0.00155,0.00000,0.00000,-0.00021,0
0,flat,12.0382,1.54633,-0.00123,0.01750,-0.00127,0.00008,0.00017,-1.00438,-0.01874,0.00147,0.00131,0.00119,-0.00024,1.00456,0.00147,0.00000,0.00000,0.00126,0
0,flat,12.0513,1.55146,-0.00123,0.01750,-0.00127,0.00008,0.00017,-1.00438,-0.01874,0.00147,0.00131,0.00119,-0.00024,1.00456,0.00147,0.00000,0.00000,0.00126,0
0,flat,12.0678,1.54148,-0.00111,0.01799,-0.00060,0.00048,-0.00025,-1.00424,-0.01828,0.00122,0.00142,0.00024,-0.00010,1.00441,0.00121,0.00000,0.00000,0.00059,0
0,flat,12.0865,1.54325,-0.00173,0.02174,0.00060,0.00022,-0.00025,-1.00407,-0.01894,0.00136,0.00113,-0.00288,0.00037,1.00425,0.00135,0.00000,0.00000,-0.00060,0
0,flat,12.1028,1.54503,-0.00318,0.02310,0.00127,0.00075,0.00015,-1.00383,-0.02018,0.00193,0.00175,-0.00297,0.00126,1.00403,0.00192,0.00000,0.00000,-0.00128,0
0,flat,12.1195,1.54668,-0.00269,0.01979,-0.00033,-0.00085,0.00002,-1.00384,-0.02036,0.00233,0.00029,0.00049,0.00037,1.00405,0.00232,0.00000,0.00000,0.00035,0
0,flat,12.1357,1.54518,-0.00269,0.01979,-0.00060,0.00008,0.00017,-1.00384,-0.02036,0.00233,0.00029,0.00049,0.00037,1.00405,0.00232,0.00000,0.00000,0.00060,0
0,flat,12.1534,1.54043,-0.00245,0.01748,-0.00060,0.00008,0.00017,-1.00389,-0.01972,0.00243,-0.00002,0.00217,0.00003,1.00409,0.00242,0.00000,0.00000,0.00060,0
0,flat,12.1701,1.54017,-0.00220,0.01697,0.00047,-0.00045,-0.00050,-1.00420,-0.01900,0.00235,-0.00118,0.00194,-0.00014,1.00438,0.00234,0.00000,0.00000,-0.00046,0
0,flat,12.1856,1.54123,0.00034,0.01918,0.00033,-0.00072,-0.00010,-1.00421,-0.01899,0.00173,0.00029,-0.00027,-0.00207,1.00439,0.00172,0.00000,0.00000,-0.00032,0
0,flat,12.2025,1.54046,0.00119,0.01701,0.00020,0.00008,-0.00023,-1.00407,-0.01846,0.00100,0.00087,0.00139,-0.00219,1.00424,0.00099,0.00000,0.00000,-0.00020,0
0,flat,12.2204,1.54301,-0.00160,0.01847,-0.00047,-0.00005,-0.00010,-1.00382,-0.01829,0.00102,0.00088,-0.00024,0.00058,1.00399,0.00102,0.00000,0.00000,0.00047,0
0,flat,12.2338,1.54466,-0.00160,0.01847,-0.00033,0.00035,0.00057,-1.00382,-0.01829,0.00102,0.00088,-0.00024,0.00058,1.00399,0.00102,0.00000,0.00000,0.00033,0
0,flat,12.2526,1.53640,-0.00427,0.02042,-0.00033,0.00035,0.00057,-1.00382,-0.01879,0.00176,0.00101,-0.00169,0.00253,1.00400,0.00175,0.00000,0.00000,0.00033,0
0,flat,12.2692,1.53788,-0.00475,0.01836,-0.00033,-0.00045,0.00017,-1.00364,-0.01885,0.00255,0.00120,0.00045,0.00222,1.00382,0.00254,0.00000,0.00000,0.00034,0
0,flat,12.2859,1.53771,-0.00208,0.01799,-0.00007,0.00048,-0.00050,-1.00359,-0.01869,0.00257,0.00102,0.00065,-0.00049,1.00377,0.00257,0.00000,0.00000,0.00006,0
0,flat,12.3035,1.54364,-0.00148,0.02015,-0.00060,-0.00018,0.00015,-1.00368,-0.01907,0.00230,-0.00023,-0.00116,-0.00081,1.00387,0.00229,0.00000,0.00000,0.00060,0
0,flat,12.3219,1.54447,-0.00100,0.02123,-0.00020,-0.00032,0.00028,-1.00373,-0.01970,0.00196,-0.00080,-0.00163,-0.00096,1.00392,0.00195,0.00000,0.00000,0.00021,0
0,flat,12.3348,1.54664,-0.00100,0.02123,-0.00047,-0.00005,-0.00012,-1.00373,-0.01970,0.00196,-0.00080,-0.00163,-0.00096,1.00392,0.00195,0.00000,0.00000,0.00047,0
0,flat,12.3534,1.54696,-0.00087,0.01916,-0.00007,-0.00045,0.00055,-1.00388,-0.01975,0.00170,-0.00077,0.00049,-0.00083,1.00407,0.00170,0.00000,0.00000,0.00008,0
0,flat,12.3691,1.54878,-0.00111,0.01747,-0.00007,-0.00045,0.00055,-1.00413,-0.01920,0.00163,-0.00089,0.00164,-0.00052,1.00431,0.00163,0.00000,0.00000,0.00008,0
0,flat,12.3853,1.54890,-0.00075,0.01773,0.00087,0.00035,0.00030,-1.00412,-0.01874,0.00153,0.00020,0.00093,-0.00078,1.00429,0.00152,0.00000,0.00000,-0.00087,0
0,flat,12.4014,1.53330,-0.00160,0.01823,0.00127,-0.00018,-0.00050,-1.00405,-0.01852,0.00161,0.00124,0.00023,-0.00001,1.00422,0.00160,0.00000,0.00000,-0.00126,0
0,flat,12.4177,1.54286,-0.00415,0.01917,-0.00033,0.00022,-0.00037,-1.00409,-0.01871,0.00210,-0.00043,-0.00055,0.00207,1.00427,0.00209,0.00000,0.00000,0.00033,0
0,flat,12.4368,1.55389,-0.00415,0.01917,0.00020,-0.00005,-0.00037,-1.00409,-0.01871,0.00210,-0.00043,-0.00055,0.00207,1.00427,0.00209,0.00000,0.00000,-0.00020,0
0,flat,12.4517,1.55410,-0.00269,0.01892,0.00020,-0.00005,-0.00037,-1.00411,-0.01884,0.00238,-0.00029,-0.00017,0.00032,1.00429,0.00237,0.00000,0.00000,-0.00020,0
0,flat,12.4693,1.54498,-0.00172,0.01686,-0.00047,0.00008,-0.00065,-1.00414,-0.01839,0.00241,-0.00075,0.00145,-0.00069,1.00431,0.00240,0.00000,0.00000,0.00046,0
0,flat,12.4846,1.54579,-0.00075,0.01857,-0.00033,-0.00005,-0.00092,-1.00419,-0.01831,0.00203,-0.00034,-0.00034,-0.00128,1.00436,0.00202,0.00000,0.00000,0.00033,0
0,flat,12.5006,1.54767,-0.00087,0.02137,0.00007,-0.00005,0.00015,-1.00398,-0.01892,0.00176,0.00031,-0.00254,-0.00088,1.00416,0.00175,0.00000,0.00000,-0.00007,0
0,flat,12.5218,1.53991,-0.00112,0.02052,-0.00020,-0.00005,0.00002,-1.00389,-0.01949,0.00164,0.00046,-0.00111,-0.00052,1.00408,0.00164,0.00000,0.00000,0.00020,0
0,flat,12.5335,1.54638,-0.00112,0.02052,-0.00047,0.00008,0.00003,-1.00389,-0.01949,0.00164,0.00046,-0.00111,-0.00052,1.00408,0.00164,0.00000,0.00000,0.00046,0
0,flat,12.5549,1.55035,-0.00051,0.01931,0.00020,0.00035,0.00030,-1.00393,-0.01962,0.00139,0.00001,0.00023,-0.00088,1.00412,0.00139,0.00000,0.00000,-0.00021,0
0,flat,12.5697,1.55021,-0.00197,0.01904,0.00020,0.00035,0.00030,-1.00411,-0.01939,0.00148,-0.00115,0.00025,0.00050,1.00430,0.00147,0.00000,0.00000,-0.00021,0
0,flat,12.5909,1.55011,-0.00209,0.01883,0.00100,-0.00018,-0.00023,-1.00384,-0.01922,0.00160,0.00065,0.00033,0.00049,1.00402,0.00159,0.00000,0.00000,-0.00100,0
0,flat,12.6016,1.54679,-0.00233,0.02001,0.00033,0.00062,-0.00010,-1.00413,-0.01930,0.00174,-0.00076,-0.00081,0.00060,1.00432,0.00174,0.00000,0.00000,-0.00035,0
0,flat,12.6170,1.54065,-0.00269,0.01979,0.00033,0.00022,-0.00078,-1.00399,-0.01970,0.00196,0.00020,-0.00016,0.00074,1.00419,0.00196,0.00000,0.00000,-0.00034,0
0,flat,12.6362,1.52904,-0.00269,0.01979,-0.00047,0.00020,-0.00023,-1.00399,-0.01970,0.00196,0.00020,-0.00016,0.00074,1.00419,0.00196,0.00000,0.00000,0.00046,0
0,flat,12.6516,1.53353,-0.00281,0.01697,-0.00087,-0.00060,-0.00037,-1.00416,-0.01922,0.00225,-0.00061,0.00216,0.00058,1.00435,0.00224,0.00000,0.00000,0.00088,0
0,flat,12.6679,1.54541,-0.00147,0.01589,-0.00087,-0.00060,-0.00037,-1.00403,-0.01824,0.00199,-0.00050,0.00227,-0.00051,1.00420,0.00198,0.00000,0.00000,0.00088,0
0,flat,12.6840,1.54677,-0.00112,0.01880,-0.00060,0.00020,-0.00037,-1.00414,-0.01818,0.00187,-0.00039,-0.00070,-0.00075,1.00430,0.00186,0.00000,0.00000,0.00060,0
0,flat,12.7013,1.54810,0.00010,0.02006,0.00047,0.00047,-0.00063,-1.00384,-0.01859,0.00145,0.00162,-0.00152,-0.00155,1.00401,0.00144,0.00000,0.00000,-0.00048,0
0,flat,12.7183,1.54493,-0.00135,0.02017,0.00060,0.00060,-0.00023,-1.00370,-0.01916,0.00125,0.00064,-0.00107,0.00011,1.00388,0.00125,0.00000,0.00000,-0.00061,0
0,flat,12.7340,1.53686,-0.00135,0.02017,-0.00033,0.00033,0.00017,-1.00370,-0.01916,0.00125,0.00064,-0.00107,0.00011,1.00388,0.00125,0.00000,0.00000,0.00033,0
0,flat,12.7509,1.53243,-0.00342,0.02043,-0.00033,-0.00020,0.00030,-1.00349,-0.01959,0.00176,0.00128,-0.00089,0.00166,1.00368,0.00176,0.00000,0.00000,0.00034,0
0,flat,12.7666,1.53151,-0.00415,0.01846,-0.00033,-0.00020,0.00030,-1.00358,-0.01942,0.00232,0.00016,0.00089,0.00184,1.00377,0.00231,0.00000,0.00000,0.00034,0
0,flat,12.7830,1.54381,-0.00244,0.01711,0.00020,-0.00060,-0.00077,-1.00382,-0.01873,0.00241,0.00015,0.00156,0.00005,1.00400,0.00240,0.00000,0.00000,-0.00019,0
0,flat,12.8009,1.54948,-0.00196,0.01917,0.00073,0.00007,-0.00010,-1.00384,-0.01872,0.00225,-0.00056,-0.00053,-0.00028,1.00402,0.00224,0.00000,0.00000,-0.00073,0
0,flat,12.8157,1.53437,-0.00136,0.02049,0.00060,-0.00007,0.00070,-1.00389,-0.01930,0.00201,-0.00101,-0.00129,-0.00064,1.00407,0.00200,0.00000,0.00000,-0.00060,0
0,flat,12.8301,1.53405,-0.00136,0.02049,-0.00047,-0.00020,-0.00023,-1.00389,-0.01930,0.00201,-0.00101,-0.00129,-0.00064,1.00407,0.00200,0.00000,0.00000,0.00047,0
0,flat,12.8470,1.53885,0.00034,0.01699,-0.00047,-0.00020,-0.00023,-1.00400,-0.01910,0.00154,-0.00091,0.00203,-0.00189,1.00418,0.00154,0.00000,0.00000,0.00047,0
0,flat,12.8643,1.53822,-0.00123,0.01567,-0.00073,0.00007,-0.00008,-1.00394,-0.01817,0.00121,0.00015,0.00244,0.00003,1.00411,0.00120,0.00000,0.00000,0.00073,0
0,flat,12.8819,1.54440,-0.00427,0.01992,0.00073,-0.00020,-0.00022,-1.00393,-0.01842,0.00184,0.00064,-0.00156,0.00244,1.00410,0.00184,0.00000,0.00000,-0.00073,0
0,flat,12.8970,1.54600,-0.00609,0.02245,0.00060,0.00033,0.00005,-1.00392,-0.01946,0.00294,-0.00034,-0.00309,0.00318,1.00411,0.00292,0.00000,0.00000,-0.00061,0
0,flat,12.9145,1.53258,-0.00609,0.02245,-0.00087,-0.00033,0.00045,-1.00392,-0.01946,0.00294,-0.00034,-0.00309,0.00318,1.00411,0.00292,0.00000,0.00000,0.00087,0
0,flat,12.9311,1.52617,-0.00306,0.01931,-0.00180,0.00007,0.00005,-1.00379,-0.01981,0.00310,0.00037,0.00043,-0.00003,1.00399,0.00309,0.00000,0.00000,0.00180,0
0,flat,12.9468,1.52578,0.00022,0.01649,-0.00180,0.00007,0.00005,-1.00390,-0.01916,0.00225,-0.00100,0.00259,-0.00247,1.00408,0.00224,0.00000,0.00000,0.00180,0
0,flat,12.9645,1.52671,0.00144,0.01846,0.00007,-0.00047,-0.00050,-1.00382,-0.01878,0.00121,0.00026,0.00025,-0.00266,1.00400,0.00121,0.00000,0.00000,-0.00006,0
0,flat,12.9815,1.54253,-0.00064,0.02181,0.00100,0.00020,0.00017,-1.00398,-0.01946,0.00093,-0.00141,-0.00248,-0.00029,1.00416,0.00092,0.00000,0.00000,-0.00100,0
0,flat,12.9976,1.52966,-0.00439,0.02103,0.00047,-0.00020,0.00003,-1.00373,-0.02007,0.00175,0.00031,-0.00103,0.00265,1.00393,0.00175,0.00000,0.00000,-0.00046,0
0,flat,13.0158,1.54069,-0.00439,0.02103,0.00007,-0.00020,0.00035,-1.00373,-0.02007,0.00175,0.00031,-0.00103,0.00265,1.00393,0.00175,0.00000,0.00000,-0.00006,0
0,flat,13.0306,1.54609,-0.00414,0.01712,-0.00085,-0.00073,0.00022,-1.00390,-0.01960,0.00247,-0.00073,0.00240,0.00169,1.00409,0.00246,0.00000,0.00000,0.00086,0
0,flat,13.0464,1.53052,-0.00220,0.01591,0.00060,0.00060,0.00035,-1.00383,-0.01866,0.00250,-0.00020,0.00268,-0.00030,1.00400,0.00249,0.00000,0.00000,-0.00061,0
0,flat,13.0679,1.53179,-0.00051,0.01859,0.00060,0.00060,0.00035,-1.00390,-0.01844,0.00198,-0.00002,-0.00023,-0.00147,1.00407,0.00197,0.00000,0.00000,-0.00061,0
0,flat,13.0850,1.53012,0.00059,0.02064,0.00047,0.00047,0.00048,-1.00379,-0.01903,0.00136,0.00023,-0.00169,-0.00195,1.00397,0.00136,0.00000,0.00000,-0.00047,0
0,flat,13.1005,1.53225,-0.00002,0.01931,-0.00047,0.00047,0.00045,-1.00375,-0.01917,0.00096,0.00020,-0.00021,-0.00094,1.00394,0.00096,0.00000,0.00000,0.00046,0
0,flat,13.1169,1.54141,-0.00329,0.01797,-0.00060,-0.00033,0.00072,-1.00368,-0.01901,0.00160,0.00001,0.00097,0.00171,1.00387,0.00159,0.00000,0.00000,0.00061,0
0,flat,13.1336,1.55085,-0.00329,0.01797,-0.00060,0.00007,0.00045,-1.00368,-0.01901,0.00160,0.00001,0.00097,0.00171,1.00387,0.00159,0.00000,0.00000,0.00060,0
0,flat,13.1519,1.54951,-0.00439,0.01883,-0.00028,0.00008,-0.00063,-1.00351,-0.01885,0.00228,0.00046,-0.00003,0.00212,1.00369,0.00227,0.00000,0.00000,0.00028,0
0,flat,13.1684,1.55025,-0.00354,0.02038,-0.00028,0.00008,-0.00063,-1.00377,-0.01943,0.00273,-0.00074,-0.00105,0.00083,1.00397,0.00272,0.00000,0.00000,0.00028,0
0,flat,13.1836,1.54960,-0.00136,0.02006,0.00038,-0.00032,0.00017,-1.00378,-0.01968,0.00249,0.00133,-0.00043,-0.00113,1.00398,0.00248,0.00000,0.00000,-0.00038,0
0,flat,13.2005,1.54813,-0.00087,0.01786,0.00078,-0.00018,-0.00037,-1.00382,-0.01952,0.00198,0.00063,0.00160,-0.00111,1.00401,0.00197,0.00000,0.00000,-0.00078,0
0,flat,13.2165,1.53503,0.00095,0.01688,0.00025,0.00008,0.00030,-1.00368,-0.01894,0.00107,-0.00037,0.00200,-0.00203,1.00386,0.00107,0.00000,0.00000,-0.00025,0
0,flat,13.2361,1.54099,-0.00196,0.01748,0.00012,0.00022,0.00017,-1.00370,-0.01843,0.00115,-0.00046,0.00088,0.00082,1.00387,0.00115,0.00000,0.00000,-0.00012,0
0,flat,13.2498,1.52984,-0.00196,0.01748,0.00038,-0.00018,0.00002,-1.00370,-0.01843,0.00115,-0.00046,0.00088,0.00082,1.00387,0.00115,0.00000,0.00000,-0.00038,0
0,flat,13.2688,1.53072,-0.00415,0.01933,0.00038,-0.00018,0.00002,-1.00342,-0.01860,0.00175,0.00098,-0.00078,0.00241,1.00359,0.00175,0.00000,0.00000,-0.00038,0
0,flat,13.2836,1.52923,-0.00499,0.01868,0.00038,-0.00032,0.00015,-1.00369,-0.01866,0.00263,-0.00071,-0.00010,0.00239,1.00387,0.00262,0.00000,0.00000,-0.00038,0
0,flat,13.3007,1.52847,-0.00257,0.01817,-0.00068,-0.00018,-0.00012,-1.00395,-0.01863,0.00269,-0.00168,0.00036,-0.00011,1.00412,0.00268,0.00000,0.00000,0.00069,0
0,flat,13.3162,1.54085,-0.00257,0.01817,-0.00068,-0.00018,-0.00012,-1.00395,-0.01863,0.00269,-0.00168,0.00036,-0.00011,1.00412,0.00268,0.00000,0.00000,0.00069,0
0,flat,13.3333,1.54206,0.00046,0.01906,-0.00068,-0.00005,0.00020,-1.00393,-0.01876,0.00211,-0.00047,-0.00039,-0.00258,1.00411,0.00210,0.00000,0.00000,0.00068,0
0,flat,13.3482,1.54787,0.00046,0.02031,-0.00055,0.00022,-0.00020,-1.00372,-0.01919,0.00147,0.00078,-0.00118,-0.00194,1.00390,0.00147,0.00000,0.00000,0.00055,0
0,flat,13.3659,1.54721,-0.00051,0.01894,-0.00055,0.00022,-0.00020,-1.00374,-0.01918,0.00105,-0.00091,0.00015,-0.00054,1.00393,0.00105,0.00000,0.00000,0.00055,0
0,flat,13.3821,1.55298,-0.00330,0.02017,0.00052,-0.00005,0.00033,-1.00366,-0.01930,0.00143,-0.00000,-0.00094,0.00188,1.00385,0.00142,0.00000,0.00000,-0.00051,0
0,flat,13.3984,1.53827,-0.00367,0.02026,0.00065,-0.00005,0.00047,-1.00367,-0.01958,0.00196,-0.00036,-0.00077,0.00172,1.00386,0.00195,0.00000,0.00000,-0.00065,0
0,flat,13.4161,1.53929,-0.00367,0.02026,0.00078,0.00035,0.00027,-1.00367,-0.01958,0.00196,-0.00036,-0.00077,0.00172,1.00386,0.00195,0.00000,0.00000,-0.00079,0
0,flat,13.4321,1.53890,-0.00306,0.01929,-0.00028,0.00008,0.00000,-1.00353,-0.01961,0.00234,-0.00026,0.00024,0.00072,1.00373,0.00234,0.00000,0.00000,0.00028,0
0,flat,13.4495,1.54011,-0.00111,0.01883,-0.00015,-0.00005,0.00000,-1.00341,-0.01950,0.00208,0.00071,0.00062,-0.00097,1.00360,0.00207,0.00000,0.00000,0.00015,0
0,flat,13.4662,1.53941,-0.00002,0.01735,-0.00015,-0.00005,0.00000,-1.00371,-0.01889,0.00159,-0.00021,0.00147,-0.00157,1.00389,0.00158,0.00000,0.00000,0.00015,0
0,flat,13.4824,1.54767,-0.00062,0.01859,0.00038,0.00048,0.00000,-1.00369,-0.01866,0.00120,0.00038,0.00000,-0.00057,1.00387,0.00119,0.00000,0.00000,-0.00039,0
0,flat,13.4991,1.54814,-0.00196,0.01787,0.00038,-0.00045,-0.00025,-1.00366,-0.01861,0.00133,0.00121,0.00069,0.00063,1.00383,0.00133,0.00000,0.00000,-0.00037,0
0,flat,13.5154,1.54145,-0.00196,0.01787,0.00025,-0.00018,0.00028,-1.00366,-0.01861,0.00133,0.00121,0.00069,0.00063,1.00383,0.00133,0.00000,0.00000,-0.00025,0
0,flat,13.5335,1.54803,-0.00404,0.02200,-0.00122,-0.00032,0.00015,-1.00360,-0.01933,0.00192,0.00104,-0.00273,0.00213,1.00379,0.00191,0.00000,0.00000,0.00122,0
0,flat,13.5495,1.54656,-0.00148,0.01658,-0.00068,0.00035,0.00042,-1.00390,-0.01884,0.00199,-0.00295,0.00215,-0.00051,1.00408,0.00199,0.00000,0.00000,0.00068,0
0,flat,13.5656,1.54726,-0.00063,0.01806,0.00025,-0.00032,0.00030,-1.00389,-0.01850,0.00157,-0.00149,0.00034,-0.00093,1.00406,0.00156,0.00000,0.00000,-0.00024,0
0,flat,13.5826,1.54018,0.00071,0.01956,0.00025,-0.00005,0.00017,-1.00364,-0.01875,0.00095,0.00009,-0.00088,-0.00166,1.00382,0.00095,0.00000,0.00000,-0.00025,0
0,flat,13.5989,1.54799,-0.00413,0.02343,0.00132,-0.00871,0.00017,-1.00469,-0.01956,0.00132,-0.01470,-0.00433,0.00289,1.00488,0.00131,0.00000,0.00000,-0.00115,0
0,flat,13.6142,1.53788,-0.00413,0.02343,0.00132,-0.00871,0.00017,-1.00469,-0.01956,0.00132,-0.01470,-0.00433,0.00289,1.00488,0.00131,0.00000,0.00000,-0.00115,0
0,flat,13.6345,1.53659,-0.00630,0.02106,-0.00120,-0.00671,0.00005,-1.00426,-0.02055,0.00259,-0.00830,-0.00079,0.00379,1.00447,0.00258,0.00000,0.00000,0.00134,0
0,flat,13.6509,1.53058,-0.00317,0.01424,-0.00095,-0.00205,0.00043,-1.00455,-0.01926,0.00299,-0.00547,0.00487,0.00021,1.00474,0.00298,0.00000,0.00000,0.00099,0
0,flat,13.6677,1.53071,-0.00123,0.01454,0.00078,0.00288,-0.00050,-1.00435,-0.01780,0.00253,-0.00189,0.00317,-0.00130,1.00451,0.00252,0.00000,0.00000,-0.00083,0
0,flat,13.6822,1.53466,0.00302,0.01971,0.00103,0.01008,-0.00023,-1.00392,-0.01795,0.00144,0.00219,-0.00180,-0.00446,1.00408,0.00144,0.00000,0.00000,-0.00121,1
1,upright,17.7890,1.45463,-1.39833,0.01306,0.02873,0.00183,0.06280,-0.15602,-0.01037,0.99682,-0.02026,-0.00304,0.01513,1.00901,0.98792,0.00000,0.00000,0.05758,0
1,upright,17.8048,1.46714,-1.41117,-0.00082,0.03924,-0.12555,0.08200,-0.15824,-0.00785,0.99668,-0.00130,0.00868,-0.00575,1.00919,0.98760,0.00000,0.00000,0.07581,0
1,upright,17.8234,1.46668,-1.40649,-0.00010,0.05078,-0.22884,0.08267,-0.15964,-0.00588,0.99651,-0.00584,0.00598,0.00163,1.00923,0.98739,0.00000,0.00000,0.07493,0
1,upright,17.8410,1.46841,-1.41846,-0.00630,0.05529,-0.34157,0.06948,-0.15888,-0.00299,0.99940,0.00379,0.00943,0.01076,1.01195,0.98759,0.00000,0.00000,0.06095,0
1,upright,17.8565,1.46885,-1.41846,-0.00630,0.05477,-0.35250,0.08229,-0.15888,-0.00299,0.99940,0.00379,0.00943,0.01076,1.01195,0.98759,0.00000,0.00000,0.07371,0
1,upright,17.8729,1.47468,-1.44062,-0.01452,0.05477,-0.35250,0.08229,-0.15113,0.00190,0.99816,0.02183,0.01256,-0.01049,1.00954,0.98873,0.00000,0.00000,0.07250,0
1,upright,17.8867,1.47053,-1.45301,-0.00446,0.05459,-0.30826,0.08374,-0.14270,0.00363,0.99640,0.02466,0.00085,0.00112,1.00657,0.98989,0.00000,0.00000,0.07404,0
1,upright,17.9086,1.47244,-1.46047,-0.00688,0.04465,-0.33090,0.08708,-0.13339,0.00356,0.99750,0.02267,0.00336,0.00207,1.00638,0.99117,0.00000,0.00000,0.07923,0
1,upright,17.9228,1.47503,-1.46919,-0.01198,0.05912,-0.30119,0.10307,-0.12527,0.00574,0.99818,0.02333,0.00630,0.00172,1.00603,0.99220,0.00000,0.00000,0.09319,0
1,upright,17.9395,1.47200,-1.45079,-0.00746,0.06482,-0.28826,0.11053,-0.12219,0.00625,0.99904,0.00136,0.00127,0.00299,1.00651,0.99258,0.00000,0.00000,0.10005,0
1,upright,17.9579,1.46284,-1.45079,-0.00746,0.05744,-0.35716,0.07829,-0.12219,0.00625,0.99904,0.00136,0.00127,0.00299,1.00651,0.99258,0.00000,0.00000,0.06852,0
1,upright,17.9713,1.48463,-1.46249,-0.01924,0.05744,-0.35716,0.07829,-0.11831,0.00987,0.99757,0.01037,0.00935,-0.00485,1.00461,0.99299,0.00000,0.00000,0.06747,0
1,upright,17.9897,1.48844,-1.49178,-0.02481,0.04781,-0.32174,0.03151,-0.10952,0.01439,0.99366,0.03213,0.00993,-0.01636,0.99978,0.99388,0.00000,0.00000,0.02145,0
1,upright,18.0043,1.49784,-1.48680,-0.03256,0.04087,-0.17796,0.00285,-0.10246,0.01852,0.99047,0.01972,0.01360,-0.00769,0.99593,0.99452,0.00000,0.00000,-0.00468,0
1,upright,18.0217,1.47219,-1.49253,-0.01603,0.03006,-0.04045,-0.02318,-0.09572,0.01849,0.98998,0.01801,-0.00255,0.00085,0.99477,0.99519,0.00000,0.00000,-0.02671,0
1,upright,18.0377,1.45243,-1.49883,0.00221,0.02470,0.01286,-0.02252,-0.08937,0.01428,0.99179,0.01744,-0.01649,0.00600,0.99591,0.99586,0.00000,0.00000,-0.02445,0
1,upright,18.0564,1.44078,-1.49883,0.00221,0.02318,0.04883,-0.03158,-0.08937,0.01428,0.99179,0.01744,-0.01649,0.00600,0.99591,0.99586,0.00000,0.00000,-0.03283,0
1,upright,18.0692,1.45560,-1.47828,-0.00862,0.02318,0.04883,-0.03158,-0.08860,0.01181,0.99403,-0.00384,-0.00318,0.00233,0.99804,0.99598,0.00000,0.00000,-0.03293,0
1,upright,18.0903,1.47961,-1.48978,-0.02174,-0.00405,0.00978,-0.06740,-0.08790,0.01370,0.99234,0.00774,0.00784,-0.00504,0.99632,0.99601,0.00000,0.00000,-0.06664,0
1,upright,18.1037,1.48215,-1.48890,-0.02386,-0.01777,0.02576,-0.08565,-0.08600,0.01670,0.99190,0.00463,0.00703,-0.00059,0.99576,0.99612,0.00000,0.00000,-0.08335,0
1,upright,18.1215,1.48565,-1.47890,-0.01642,-0.00701,0.05001,-0.08580,-0.08714,0.01719,0.99435,-0.00541,-0.00063,0.00991,0.99830,0.99603,0.00000,0.00000,-0.08399,0
1,upright,18.1390,1.47683,-1.47525,-0.01502,-0.01144,-0.04538,-0.07659,-0.08930,0.01680,0.99753,-0.00737,-0.00158,0.01125,1.00166,0.99588,0.00000,0.00000,-0.07602,0
1,upright,18.1567,1.46847,-1.47525,-0.01502,-0.01392,-0.07817,-0.07353,-0.08930,0.01680,0.99753,-0.00737,-0.00158,0.01125,1.00166,0.99588,0.00000,0.00000,-0.07329,0
1,upright,18.1727,1.46913,-1.47733,-0.01535,-0.01304,-0.05248,-0.10602,-0.09102,0.01649,0.99720,-0.00217,-0.00116,-0.00305,1.00148,0.99573,0.00000,0.00000,-0.10524,0
1,upright,18.1877,1.48556,-1.47387,-0.02962,-0.01304,-0.05248,-0.10602,-0.09277,0.01972,0.99612,-0.00384,0.00987,-0.00247,1.00063,0.99550,0.00000,0.00000,-0.10537,0
1,upright,18.2038,1.47212,-1.48876,-0.01879,-0.00981,0.02826,-0.13816,-0.09025,0.02007,0.99550,0.00853,-0.00133,-0.00162,0.99978,0.99572,0.00000,0.00000,-0.13612,0
1,upright,18.2202,1.46350,-1.48916,-0.00871,0.00704,0.06998,-0.11926,-0.08846,0.01778,0.99712,0.00652,-0.00903,0.00433,1.00119,0.99593,0.00000,0.00000,-0.11815,0
1,upright,18.2387,1.47592,-1.47923,-0.01541,0.02213,0.01189,-0.08662,-0.08850,0.01541,0.99893,-0.00321,0.00004,-0.00015,1.00296,0.99598,0.00000,0.00000,-0.08804,0
1,upright,18.2563,1.47415,-1.47923,-0.01541,0.03098,-0.03649,-0.07491,-0.08850,0.01541,0.99893,-0.00321,0.00004,-0.00015,1.00296,0.99598,0.00000,0.00000,-0.07790,0
1,upright,18.2701,1.47968,-1.48060,-0.02384,0.02145,-0.09311,-0.08009,-0.08881,0.01719,0.99625,-0.00086,0.00654,-0.00480,1.00035,0.99590,0.00000,0.00000,-0.08327,0
1,upright,18.2898,1.46104,-1.48102,-0.00867,0.02145,-0.09311,-0.08009,-0.08789,0.01516,0.99828,-0.00270,-0.00640,0.00805,1.00226,0.99603,0.00000,0.00000,-0.08306,0
1,upright,18.3042,1.45120,-1.49047,-0.00119,0.03128,-0.07952,-0.07864,-0.08522,0.01068,1.00103,0.00463,-0.00949,0.00006,1.00471,0.99634,0.00000,0.00000,-0.08185,0
1,upright,18.3208,1.45461,-1.48965,-0.00594,0.02680,-0.10470,-0.06677,-0.08398,0.00894,1.00076,0.00277,-0.00298,-0.00223,1.00431,0.99646,0.00000,0.00000,-0.06970,0
1,upright,18.3393,1.46590,-1.50223,-0.01383,0.02157,-0.07446,-0.07101,-0.07986,0.00958,0.99780,0.01180,0.00415,-0.00675,1.00104,0.99677,0.00000,0.00000,-0.07322,0
1,upright,18.3546,1.47310,-1.50223,-0.01383,0.01539,-0.01529,-0.08274,-0.07986,0.00958,0.99780,0.01180,0.00415,-0.00675,1.00104,0.99677,0.00000,0.00000,-0.08384,0
1,upright,18.3704,1.45670,-1.50183,-0.00496,0.00851,-0.03834,-0.06393,-0.07666,0.00899,0.99714,0.00766,-0.00402,0.00185,1.00012,0.99702,0.00000,0.00000,-0.06474,0
1,upright,18.3875,1.46382,-1.49531,-0.01037,0.00851,-0.03834,-0.06393,-0.07547,0.00897,0.99892,-0.00059,0.00148,0.00677,1.00180,0.99712,0.00000,0.00000,-0.06473,0
1,upright,18.4027,1.46279,-1.49484,-0.00686,0.00470,-0.06577,-0.04165,-0.07657,0.00872,1.00077,0.00001,-0.00179,0.00517,1.00374,0.99705,0.00000,0.00000,-0.04246,0
1,upright,18.4216,1.45792,-1.50511,-0.00958,0.01657,-0.09015,-0.00461,-0.07422,0.00797,1.00120,0.00850,0.00163,-0.00210,1.00397,0.99723,0.00000,0.00000,-0.00654,0
1,upright,18.4374,1.45551,-1.50708,-0.00921,0.03454,-0.11106,0.01990,-0.07156,0.00849,1.00033,0.00768,0.00075,0.00083,1.00292,0.99742,0.00000,0.00000,0.01645,0
1,upright,18.4542,1.45964,-1.50708,-0.00921,0.04731,-0.10599,0.04000,-0.07156,0.00849,1.00033,0.00768,0.00075,0.00083,1.00292,0.99742,0.00000,0.00000,0.03563,0
1,upright,18.4721,1.47601,-1.49918,-0.02205,0.04422,-0.06935,0.04120,-0.07134,0.01114,1.00002,-0.00013,0.01088,-0.00373,1.00262,0.99740,0.00000,0.00000,0.03718,0
1,upright,18.4858,1.46357,-1.50588,-0.01214,0.04422,-0.06935,0.04120,-0.06986,0.01251,0.99947,0.00488,-0.00035,0.00022,1.00199,0.99749,0.00000,0.00000,0.03715,0
1,upright,18.5002,1.47839,-1.49689,-0.02256,0.03759,-0.08307,0.03003,-0.07011,0.01461,0.99912,-0.00357,0.00791,-0.00405,1.00168,0.99744,0.00000,0.00000,0.02611,0
1,upright,18.5192,1.46596,-1.51202,-0.01885,0.03158,-0.07348,0.01657,-0.06788,0.01591,0.99874,0.00911,0.00295,-0.00005,1.00117,0.99757,0.00000,0.00000,0.01322,0
1,upright,18.5348,1.46124,-1.51202,-0.01885,0.03434,-0.03764,0.01497,-0.06788,0.01591,0.99874,0.00911,0.00295,-0.00005,1.00117,0.99757,0.00000,0.00000,0.01201,0
1,upright,18.5538,1.47168,-1.50803,-0.02301,0.03526,-0.02232,0.01537,-0.06656,0.01736,0.99719,0.00422,0.00551,-0.00532,0.99956,0.99763,0.00000,0.00000,0.01260,0
1,upright,18.5697,1.47617,-1.51629,-0.02152,0.02716,-0.03884,0.02243,-0.06379,0.01919,0.99718,0.00928,0.00235,0.00187,0.99940,0.99778,0.00000,0.00000,0.01990,0
1,upright,18.5847,1.47408,-1.50816,-0.01917,0.02716,-0.03884,0.02243,-0.06333,0.01939,0.99888,0.00053,-0.00016,0.00237,1.00108,0.99781,0.00000,0.00000,0.01991,0
1,upright,18.6034,1.48289,-1.50781,-0.02653,0.02994,-0.03322,0.03389,-0.06322,0.02127,0.99674,0.00087,0.00501,-0.00816,0.99897,0.99777,0.00000,0.00000,0.03121,0
1,upright,18.6200,1.47828,-1.51673,-0.02406,0.02821,-0.03164,0.02110,-0.06118,0.02231,0.99439,0.00762,0.00154,-0.00473,0.99652,0.99786,0.00000,0.00000,0.01861,0
1,upright,18.6364,1.47243,-1.51673,-0.02406,0.02821,-0.03164,0.02110,-0.06118,0.02231,0.99439,0.00762,0.00154,-0.00473,0.99652,0.99786,0.00000,0.00000,0.01861,0
1,upright,18.6531,1.47455,-1.51199,-0.02162,0.02132,-0.05549,0.00443,-0.06022,0.02216,0.99537,0.00133,-0.00050,0.00502,0.99744,0.99793,0.00000,0.00000,0.00190,0
1,upright,18.6710,1.47366,-1.51034,-0.01753,0.02826,-0.08200,0.02242,-0.06008,0.02085,0.99749,-0.00075,-0.00320,0.00754,0.99952,0.99797,0.00000,0.00000,0.01896,0
1,upright,18.6865,1.48075,-1.50921,-0.02335,0.02826,-0.08200,0.02242,-0.06119,0.02078,1.00014,-0.00075,0.00272,0.00427,1.00223,0.99792,0.00000,0.00000,0.01894,0
1,upright,18.7041,1.48549,-1.51847,-0.02908,0.03441,-0.09053,0.03667,-0.05849,0.02237,0.99871,0.00640,0.00660,-0.00407,1.00067,0.99804,0.00000,0.00000,0.03257,0
1,upright,18.7221,1.48465,-1.51306,-0.03312,0.02813,-0.07961,0.02641,-0.05849,0.02580,0.99757,0.00102,0.00720,-0.00341,0.99962,0.99795,0.00000,0.00000,0.02266,0
1,upright,18.7351,1.48303,-1.51306,-0.03312,0.02145,-0.04228,0.02188,-0.05849,0.02580,0.99757,0.00102,0.00720,-0.00341,0.99962,0.99795,0.00000,0.00000,0.01949,0
1,upright,18.7516,1.47010,-1.51754,-0.02851,0.02370,-0.03562,0.02535,-0.05745,0.02692,0.99715,0.00427,0.00157,0.00053,0.99917,0.99798,0.00000,0.00000,0.02297,0
1,upright,18.7713,1.47121,-1.52580,-0.02029,0.02370,-0.03562,0.02535,-0.05438,0.02538,0.99637,0.00961,-0.00518,-0.00210,0.99818,0.99819,0.00000,0.00000,0.02310,0
1,upright,18.7869,1.47625,-1.51892,-0.03050,0.02382,-0.01697,0.02002,-0.05417,0.02652,0.99635,0.00245,0.00392,-0.00013,0.99817,0.99817,0.00000,0.00000,0.01824,0
1,upright,18.8028,1.47081,-1.52333,-0.02636,0.01822,-0.02018,0.00470,-0.05214,0.02667,0.99799,0.00436,-0.00012,0.00797,0.99970,0.99828,0.00000,0.00000,0.00320,0
1,upright,18.8234,1.49134,-1.52908,-0.03567,0.00948,-0.03844,0.00207,-0.04938,0.02846,0.99657,0.00812,0.00684,-0.00806,0.99820,0.99837,0.00000,0.00000,0.00050,0
1,upright,18.8376,1.48590,-1.52908,-0.03567,0.00228,-0.02791,-0.00686,-0.04938,0.02846,0.99657,0.00812,0.00684,-0.00806,0.99820,0.99837,0.00000,0.00000,-0.00776,0
1,upright,18.8539,1.48391,-1.52210,-0.03461,0.00228,-0.02791,-0.00686,-0.04844,0.03006,0.99522,-0.00000,0.00440,-0.00121,0.99685,0.99836,0.00000,0.00000,-0.00780,0
1,upright,18.8706,1.48346,-1.52310,-0.02879,0.01755,-0.00739,0.00218,-0.04852,0.03007,0.99442,0.00118,-0.00147,-0.00259,0.99606,0.99836,0.00000,0.00000,0.00110,0
1,upright,18.8905,1.47445,-1.52503,-0.02160,0.01755,-0.00739,0.00218,-0.04814,0.02881,0.99428,0.00252,-0.00727,0.00170,0.99586,0.99841,0.00000,0.00000,0.00112,0
1,upright,18.9039,1.47551,-1.50521,-0.02856,0.01359,-0.03164,-0.00275,-0.05183,0.02817,0.99771,-0.01437,0.00069,0.01024,0.99945,0.99826,0.00000,0.00000,-0.00434,0
1,upright,18.9190,1.47329,-1.52432,-0.02622,0.00508,-0.05309,-0.02313,-0.05241,0.02798,1.00012,0.00560,-0.00156,0.00632,1.00189,0.99824,0.00000,0.00000,-0.02484,0
1,upright,18.9369,1.47753,-1.52432,-0.02622,0.01028,-0.05909,-0.00941,-0.05241,0.02798,1.00012,0.00560,-0.00156,0.00632,1.00189,0.99824,0.00000,0.00000,-0.01158,0
1,upright,18.9526,1.47815,-1.52677,-0.02768,0.00911,-0.07321,-0.00954,-0.04977,0.02838,0.99967,0.00586,-0.00075,-0.00285,1.00131,0.99836,0.00000,0.00000,-0.01205,0
1,upright,18.9685,1.47967,-1.51543,-0.02811,0.00808,-0.11040,-0.02180,-0.05072,0.02840,0.99938,-0.00465,-0.00028,-0.00047,1.00107,0.99831,0.00000,0.00000,-0.02530,0
1,upright,18.9861,1.47375,-1.52505,-0.02392,0.00808,-0.11040,-0.02180,-0.04857,0.02698,0.99964,0.00273,-0.00300,0.00181,1.00118,0.99846,0.00000,0.00000,-0.02513,0
1,upright,19.0023,1.46616,-1.52532,-0.02265,0.01166,-0.10853,-0.01914,-0.04818,0.02637,1.00112,0.00224,-0.00348,0.00837,1.00262,0.99850,0.00000,0.00000,-0.02252,0
1,upright,19.0206,1.47974,-1.53982,-0.03116,0.00836,-0.12905,-0.01486,-0.04452,0.02774,1.00215,0.01354,0.00344,-0.00245,1.00353,0.99863,0.00000,0.00000,-0.01877,0
1,upright,19.0344,1.48908,-1.53982,-0.03116,0.00836,-0.12905,-0.01486,-0.04452,0.02774,1.00215,0.01354,0.00344,-0.00245,1.00353,0.99863,0.00000,0.00000,-0.01877,0
1,upright,19.0528,1.46647,-1.53386,-0.01618,0.00505,-0.12757,0.00526,-0.04111,0.02524,1.00449,0.00361,-0.00880,0.01035,1.00565,0.99885,0.00000,0.00000,0.00185,0
1,upright,19.0685,1.46728,-1.52576,-0.01703,-0.00580,-0.18859,0.01755,-0.04295,0.02252,1.00742,-0.00273,-0.00523,0.00622,1.00859,0.99884,0.00000,0.00000,0.01357,0
1,upright,19.0874,1.47099,-1.53362,-0.02074,-0.00713,-0.29974,0.01904,-0.04172,0.02225,1.00796,0.00420,-0.00131,0.00090,1.00907,0.99890,0.00000,0.00000,0.01270,0
1,upright,19.1033,1.46761,-1.52701,-0.02084,0.00661,-0.33624,0.02916,-0.04220,0.02254,1.00840,-0.00202,-0.00148,0.00109,1.00953,0.99888,0.00000,0.00000,0.02134,0
1,upright,19.1192,1.46399,-1.54212,-0.02268,0.01667,-0.42487,0.02102,-0.03905,0.02170,1.01009,0.00995,0.00132,0.00423,1.01108,0.99902,0.00000,0.00000,0.01124,0
1,upright,19.1381,1.46858,-1.54212,-0.02268,0.00879,-0.53309,0.00783,-0.03905,0.02170,1.01009,0.00995,0.00132,0.00423,1.01108,0.99902,0.00000,0.00000,-0.00396,0
1,upright,19.1538,1.49333,-1.54646,-0.03777,0.00879,-0.53309,0.00783,-0.03569,0.02522,1.00855,0.01130,0.01265,-0.00644,1.00949,0.99906,0.00000,0.00000,-0.00581,0
1,upright,19.1701,1.47009,-1.57760,-0.02254,-0.02165,-0.54723,-0.04252,-0.02541,0.02651,1.00760,0.03228,-0.00375,0.00212,1.00827,0.99934,0.00000,0.00000,-0.05633,0
1,upright,19.1863,1.45842,-1.62422,-0.01839,-0.06538,-0.57894,-0.08645,-0.00756,0.02341,1.00835,0.06126,-0.00491,-0.00409,1.00865,0.99970,0.00000,0.00000,-0.09937,0
1,upright,19.2038,1.47015,-1.65145,-0.02821,-0.11133,-0.63008,-0.07946,0.01610,0.02364,0.99978,0.06236,0.00385,-0.02896,1.00019,0.99959,0.00000,0.00000,-0.09611,0
1,upright,19.2187,1.48404,-1.65937,-0.03955,-0.11606,-0.54064,-0.03241,0.03470,0.02715,0.98907,0.05042,0.01093,-0.03047,0.99005,0.99901,0.00000,0.00000,-0.05127,0
1,upright,19.2365,1.46980,-1.65470,-0.02927,-0.11361,-0.33063,-0.02856,0.04779,0.02761,0.98085,0.03296,0.00060,-0.02063,0.98240,0.99842,0.00000,0.00000,-0.04334,0
1,upright,19.2510,1.46576,-1.65470,-0.02927,-0.11361,-0.33063,-0.02856,0.04779,0.02761,0.98085,0.03296,0.00060,-0.02063,0.98240,0.99842,0.00000,0.00000,-0.04334,0
1,upright,19.2687,1.46444,-1.65414,-0.02591,-0.09824,-0.16914,-0.04553,0.05663,0.02803,0.97964,0.02503,-0.00261,-0.00213,0.98168,0.99793,0.00000,0.00000,-0.05593,0
1,upright,19.2860,1.49403,-1.64099,-0.04494,-0.08437,-0.08399,-0.04555,0.06175,0.03095,0.97825,0.00658,0.01286,-0.00634,0.98069,0.99752,0.00000,0.00000,-0.05340,0
1,upright,19.3035,1.49214,-1.63664,-0.04056,-0.04723,0.00848,-0.01574,0.06306,0.03451,0.97664,0.00126,0.00517,-0.00118,0.97928,0.99730,0.00000,0.00000,-0.01844,0
1,upright,19.3182,1.48781,-1.63664,-0.04056,-0.00187,0.12694,0.02393,0.06306,0.03451,0.97664,0.00126,0.00517,-0.00118,0.97928,0.99730,0.00000,0.00000,0.02822,0
1,upright,19.3346,1.45959,-1.61959,-0.02013,-0.00187,0.12694,0.02393,0.06050,0.03170,0.98212,-0.01157,-0.01150,0.01995,0.98450,0.99759,0.00000,0.00000,0.02785,0
1,upright,19.3577,1.48158,-1.60235,-0.02867,0.02874,0.10802,0.04695,0.05367,0.03002,0.98813,-0.02206,-0.00129,0.01312,0.99004,0.99807,0.00000,0.00000,0.05169,0
1,upright,19.3672,1.47351,-1.61132,-0.02480,0.05509,0.07681,0.03279,0.04933,0.02936,0.99258,-0.00856,-0.00440,0.01293,0.99424,0.99833,0.00000,0.00000,0.03774,0
1,upright,19.3860,1.47223,-1.61188,-0.02392,0.05509,0.07681,0.03279,0.04692,0.02828,0.99642,-0.00554,-0.00417,0.01017,0.99793,0.99849,0.00000,0.00000,0.03751,0
1,upright,19.3998,1.45103,-1.62238,-0.01342,0.04074,0.06921,0.01507,0.04783,0.02402,0.99871,0.00405,-0.01052,0.00606,1.00014,0.99857,0.00000,0.00000,0.01866,0
1,upright,19.4180,1.46489,-1.62485,-0.02262,0.03093,0.05203,0.02015,0.04912,0.02324,0.99573,0.00402,-0.00098,-0.01363,0.99721,0.99851,0.00000,0.00000,0.02286,0
1,upright,19.4343,1.46659,-1.62485,-0.02262,0.03093,0.05203,0.02015,0.04912,0.02324,0.99573,0.00402,-0.00098,-0.01363,0.99721,0.99851,0.00000,0.00000,0.02286,0
1,upright,19.4501,1.44558,-1.62478,-0.01104,0.01161,0.07989,0.00831,0.04997,0.02105,0.99553,0.00409,-0.00999,0.00485,0.99700,0.99852,0.00000,0.00000,0.01057,0
1,upright,19.4652,1.45448,-1.61988,-0.01680,-0.00303,0.09361,-0.00460,0.05061,0.01895,0.99598,-0.00195,-0.00229,-0.00547,0.99745,0.99853,0.00000,0.00000,-0.00297,0
1,upright,19.4845,1.45668,-1.60770,-0.01524,0.00228,0.09374,0.01379,0.04803,0.01797,0.99720,-0.01091,-0.00264,0.00821,0.99851,0.99868,0.00000,0.00000,0.01557,0
1,upright,19.5002,1.47315,-1.59986,-0.02414,0.01697,0.04378,0.02565,0.04229,0.01923,1.00067,-0.01298,0.00512,0.00741,1.00175,0.99892,0.00000,0.00000,0.02718,0
1,upright,19.5155,1.47437,-1.59986,-0.02414,0.00889,0.00273,0.01579,0.04229,0.01923,1.00067,-0.01298,0.00512,0.00741,1.00175,0.99892,0.00000,0.00000,0.01620,0
1,upright,19.5321,1.47743,-1.60322,-0.02906,0.00889,0.00273,0.01579,0.03948,0.02171,1.00097,-0.00703,0.00740,-0.00045,1.00198,0.99899,0.00000,0.00000,0.01618,0
1,upright,19.5506,1.46851,-1.59685,-0.02514,-0.00162,0.00393,-0.00448,0.03636,0.02322,0.99975,-0.01038,0.00186,-0.00261,1.00068,0.99907,0.00000,0.00000,-0.00444,0
1,upright,19.5660,1.46091,-1.59767,-0.01957,0.00063,0.01137,-0.02421,0.03337,0.02185,1.00336,-0.00611,-0.00200,0.01046,1.00415,0.99921,0.00000,0.00000,-0.02393,0
1,upright,19.5841,1.46163,-1.60930,-0.02088,0.00411,-0.02273,-0.02515,0.03387,0.02196,1.00435,0.00495,-0.00089,0.00335,1.00516,0.99919,0.00000,0.00000,-0.02549,0
1,upright,19.6031,1.47808,-1.60466,-0.02792,0.00869,-0.07244,-0.01620,0.03376,0.02287,1.00352,0.00003,0.00500,-0.00604,1.00434,0.99918,0.00000,0.00000,-0.01755,0
1,upright,19.6175,1.47613,-1.61872,-0.02667,0.01096,-0.07018,-0.02300,0.03671,0.02426,0.99996,0.01071,0.00215,-0.01116,1.00093,0.99903,0.00000,0.00000,-0.02428,0
1,upright,19.6352,1.47909,-1.61872,-0.02667,0.01850,-0.03927,-0.02062,0.03671,0.02426,0.99996,0.01071,0.00215,-0.01116,1.00093,0.99903,0.00000,0.00000,-0.02087,0
1,upright,19.6505,1.46490,-1.62170,-0.02988,0.01850,-0.03927,-0.02062,0.04051,0.02568,0.99708,0.00983,0.00389,-0.00891,0.99823,0.99884,0.00000,0.00000,-0.02085,0
1,upright,19.6685,1.45424,-1.61261,-0.02115,0.01287,-0.00315,-0.02461,0.04159,0.02603,0.99603,0.00026,-0.00485,0.00423,0.99724,0.99879,0.00000,0.00000,-0.02413,0
1,upright,19.6863,1.44961,-1.60467,-0.01693,0.00040,-0.02367,-0.03419,0.03981,0.02252,1.00131,-0.00548,-0.00535,0.01189,1.00236,0.99896,0.00000,0.00000,-0.03467,0
1,upright,19.7005,1.45322,-1.61980,-0.02247,0.00100,-0.09110,-0.03431,0.04072,0.02214,0.99961,0.00807,0.00025,-0.00484,1.00068,0.99893,0.00000,0.00000,-0.03624,0
1,upright,19.7198,1.44844,-1.63334,-0.01902,0.01389,-0.08577,-0.02446,0.04629,0.02174,0.99802,0.01603,-0.00277,-0.00279,0.99933,0.99869,0.00000,0.00000,-0.02565,0
1,upright,19.7353,1.46805,-1.63334,-0.01902,0.01597,-0.03366,-0.01620,0.04629,0.02174,0.99802,0.01603,-0.00277,-0.00279,0.99933,0.99869,0.00000,0.00000,-0.01618,0
1,upright,19.7511,1.46903,-1.62529,-0.02539,0.01597,-0.03366,-0.01620,0.04857,0.02262,0.99776,0.00570,0.00269,-0.00276,0.99919,0.99856,0.00000,0.00000,-0.01617,0
1,upright,19.7677,1.46432,-1.61999,-0.02288,0.01023,-0.00035,-0.01487,0.04907,0.02336,0.99854,0.00036,-0.00036,0.00536,1.00002,0.99852,0.00000,0.00000,-0.01436,0
1,upright,19.7846,1.46957,-1.61508,-0.02615,0.00638,-0.00941,-0.00686,0.04868,0.02341,0.99947,-0.00439,0.00276,0.00006,1.00093,0.99854,0.00000,0.00000,-0.00676,0
1,upright,19.8023,1.46143,-1.62029,-0.02345,0.00508,-0.03031,0.00180,0.04799,0.02387,0.99794,0.00129,-0.00050,-0.00330,0.99938,0.99856,0.00000,0.00000,0.00132,0
1,upright,19.8173,1.47028,-1.62550,-0.02697,0.01147,-0.04218,-0.00140,0.04940,0.02425,0.99643,0.00486,0.00251,-0.00557,0.99795,0.99848,0.00000,0.00000,-0.00185,0
1,upright,19.8343,1.46845,-1.62550,-0.02697,0.01569,-0.01540,-0.00461,0.04940,0.02425,0.99643,0.00486,0.00251,-0.00557,0.99795,0.99848,0.00000,0.00000,-0.00420,0
1,upright,19.8506,1.47523,-1.62550,-0.02710,0.01569,-0.01540,-0.00461,0.05121,0.02530,0.99595,0.00330,0.00173,-0.00047,0.99758,0.99836,0.00000,0.00000,-0.00419,0
1,upright,19.8673,1.46969,-1.61511,-0.02234,0.01127,0.01271,-0.01329,0.04993,0.02505,0.99708,-0.00551,-0.00266,0.00464,0.99864,0.99843,0.00000,0.00000,-0.01239,0
1,upright,19.8829,1.47593,-1.61900,-0.02410,0.00916,0.00165,-0.01476,0.04949,0.02462,0.99810,-0.00131,-0.00052,0.00069,0.99963,0.99847,0.00000,0.00000,-0.01424,0
1,upright,19.8993,1.47671,-1.61966,-0.02725,0.00744,-0.00928,-0.01009,0.04945,0.02504,0.99742,-0.00079,0.00211,-0.00254,0.99896,0.99846,0.00000,0.00000,-0.00994,0
1,upright,19.9152,1.47417,-1.61966,-0.02725,0.00503,-0.00022,-0.01436,0.04945,0.02504,0.99742,-0.00079,0.00211,-0.00254,0.99896,0.99846,0.00000,0.00000,-0.01409,0
1,upright,19.9336,1.48879,-1.61924,-0.03389,0.00142,0.02230,-0.02498,0.04875,0.02736,0.99609,-0.00058,0.00636,-0.00268,0.99766,0.99843,0.00000,0.00000,-0.02426,0
1,upright,19.9497,1.47580,-1.61463,-0.02910,0.00142,0.02230,-0.02498,0.04793,0.02773,0.99683,-0.00414,0.00136,0.00159,0.99837,0.99846,0.00000,0.00000,-0.02426,0
1,upright,19.9654,1.49320,-1.61919,-0.04175,0.00541,0.02137,-0.03004,0.04753,0.03087,0.99456,0.00011,0.01026,-0.01091,0.99617,0.99838,0.00000,0.00000,-0.02907,0
1,upright,19.9821,1.50635,-1.62912,-0.04815,0.01097,0.03949,-0.02245,0.05040,0.03498,0.99021,0.00673,0.01225,-0.01183,0.99211,0.99809,0.00000,0.00000,-0.02046,0
1,upright,19.9984,1.46761,-1.65616,-0.02902,0.01557,0.09573,-0.01954,0.05565,0.03621,0.98783,0.02872,-0.00749,-0.00192,0.99005,0.99775,0.00000,0.00000,-0.01511,0
1,upright,20.0130,1.45931,-1.65616,-0.02902,-0.00260,0.03282,-0.04833,0.05565,0.03621,0.98783,0.02872,-0.00749,-0.00192,0.99005,0.99775,0.00000,0.00000,-0.04717,0
1,upright,20.0321,1.44071,-1.62574,-0.00727,-0.00138,0.01697,-0.04553,0.05484,0.02569,0.99592,0.00124,-0.01827,0.02358,0.99776,0.99816,0.00000,0.00000,-0.04509,0
1,upright,20.0495,1.43558,-1.64376,-0.00977,-0.00138,0.01697,-0.04553,0.05848,0.02086,0.99432,0.01397,-0.01115,-0.00312,0.99626,0.99806,0.00000,0.00000,-0.04517,0
1,upright,20.0666,1.45248,-1.60946,-0.01745,0.03800,0.02352,0.02162,0.05554,0.01965,0.99853,-0.01646,-0.00200,0.01186,1.00026,0.99826,0.00000,0.00000,0.02415,0
1,upright,20.0833,1.47068,-1.59926,-0.02584,0.04993,0.05616,0.03999,0.04769,0.02117,1.00266,-0.01886,0.00502,0.01030,1.00401,0.99865,0.00000,0.00000,0.04349,0
1,upright,20.1002,1.47343,-1.60148,-0.02539,0.03959,0.02951,0.01640,0.04337,0.02225,1.00403,-0.01248,0.00332,0.00234,1.00521,0.99882,0.00000,0.00000,0.01875,1
2,reclined,22.4434,1.31968,-1.40513,0.25517,0.22371,-0.63108,-0.09598,-0.19884,-0.26564,0.89150,0.05584,0.03945,-0.03623,0.95125,0.93719,0.00000,0.00000,0.03952,0
2,reclined,22.4601,1.30644,-1.44107,0.24531,0.26771,-0.55656,-0.22641,-0.17927,-0.25570,0.89578,0.05952,0.02395,0.02215,0.94865,0.94427,0.00000,0.00000,-0.11437,0
2,reclined,22.4753,1.30825,-1.44107,0.24531,0.24511,-0.37661,-0.39688,-0.17927,-0.25570,0.89578,0.05952,0.02395,0.02215,0.94865,0.94427,0.00000,0.00000,-0.31957,0
2,reclined,22.4923,1.21052,-1.53118,0.29662,0.24511,-0.37661,-0.39688,-0.14528,-0.25925,0.90408,0.10867,-0.02331,0.01970,0.95167,0.94999,0.00000,0.00000,-0.31186,0
2,reclined,22.5089,1.04604,-1.64765,0.35157,0.29264,0.04750,-0.44977,-0.09231,-0.27700,0.90470,0.16166,-0.05433,-0.00410,0.95064,0.95167,0.00000,0.00000,-0.47029,0
2,reclined,22.5287,0.98390,-1.66766,0.38839,0.29264,0.04750,-0.44977,-0.01923,-0.31593,0.92090,0.11237,-0.07811,0.03759,0.97377,0.94570,0.00000,0.00000,-0.44654,0
2,reclined,22.5420,1.00170,-1.64318,0.39562,0.28630,0.18134,-0.34099,-0.00621,-0.32706,0.92253,0.07377,-0.06310,0.00923,0.97881,0.94250,0.00000,0.00000,-0.38379,0
2,reclined,22.5601,1.09047,-1.55885,0.37713,0.35814,0.16644,-0.23885,-0.00218,-0.33553,0.91108,-0.00820,-0.00862,-0.04230,0.97091,0.93839,0.00000,0.00000,-0.28246,0
2,reclined,22.5772,1.08571,-1.55885,0.37713,0.49792,0.14024,-0.22929,-0.00218,-0.33553,0.91108,-0.00820,-0.00862,-0.04230,0.97091,0.93839,0.00000,0.00000,-0.26475,0
2,reclined,22.5939,1.24395,-1.44604,0.29648,0.50515,0.17055,-0.34554,-0.02738,-0.32524,0.91023,-0.08911,0.03928,0.01862,0.96698,0.94131,0.00000,0.00000,-0.39693,0
2,reclined,22.6104,1.35945,-1.40853,0.19441,0.32309,0.27319,-0.49610,-0.06457,-0.29766,0.94085,-0.10749,0.08796,0.11016,0.98892,0.95139,0.00000,0.00000,-0.57531,0
2,reclined,22.6270,1.37777,-1.44215,0.16344,0.32309,0.27319,-0.49610,-0.09741,-0.25048,0.98811,-0.03823,0.07613,0.06043,1.02401,0.96494,0.00000,0.00000,-0.57627,0
2,reclined,22.6452,1.35419,-1.44192,0.18226,0.16767,0.38559,-0.52886,-0.10221,-0.24075,0.98971,-0.02722,0.05514,0.00903,1.02368,0.96681,0.00000,0.00000,-0.61873,0
2,reclined,22.6619,1.34792,-1.47382,0.18107,0.20035,0.33166,-0.42704,-0.10143,-0.21322,0.95576,0.01565,0.05102,-0.07396,0.98450,0.97081,0.00000,0.00000,-0.50705,0
2,reclined,22.6772,1.35395,-1.49128,0.15890,0.38725,0.18642,-0.20837,-0.09334,-0.19617,0.94576,0.01822,0.04463,-0.00311,0.97039,0.97462,0.00000,0.00000,-0.27802,0
2,reclined,22.6956,1.34874,-1.49128,0.15890,0.38725,0.18642,-0.20837,-0.09334,-0.19617,0.94576,0.01822,0.04463,-0.00311,0.97039,0.97462,0.00000,0.00000,-0.27802,0
2,reclined,22.7103,1.38289,-1.47298,0.12993,0.55689,0.17220,0.02858,-0.09264,-0.18021,0.95933,-0.00655,0.04750,0.05154,0.98050,0.97841,0.00000,0.00000,-0.05631,0
2,reclined,22.7298,1.48216,-1.40805,0.05253,0.63123,0.23569,0.22846,-0.11188,-0.15220,0.99526,-0.07039,0.09305,0.11481,1.01303,0.98246,0.00000,0.00000,0.11932,0
2,reclined,22.7443,1.54662,-1.36260,-0.00446,0.58680,0.31428,0.35927,-0.14739,-0.11095,1.04140,-0.10110,0.11632,0.13485,1.05761,0.98467,0.00000,0.00000,0.23902,0
2,reclined,22.7605,1.50679,-1.31086,0.02934,0.47638,0.18624,0.53178,-0.18864,-0.08670,1.09390,-0.14169,0.04899,0.14815,1.11342,0.98246,0.00000,0.00000,0.42724,0
2,reclined,22.7780,1.50802,-1.11312,0.05980,0.31771,-0.23016,0.89418,-0.28224,-0.08403,1.12402,-0.29513,0.00580,0.04818,1.16196,0.96735,0.00000,0.00000,0.80446,0
2,reclined,22.7919,1.49907,-1.11312,0.05980,0.31771,-0.23016,0.89418,-0.28224,-0.08403,1.12402,-0.29513,0.00580,0.04818,1.16196,0.96735,0.00000,0.00000,0.80446,0
2,reclined,22.8090,1.50966,-0.95122,0.06398,0.11266,-0.33040,0.86044,-0.40274,-0.08340,1.11212,-0.35464,-0.00016,-0.05029,1.18574,0.93792,0.00000,0.00000,0.79200,0
2,reclined,22.8261,1.51401,-0.88061,0.06922,0.00571,-0.35191,0.39055,-0.51146,-0.08444,1.07712,-0.28025,-0.00177,-0.11823,1.19537,0.90108,0.00000,0.00000,0.37433,0
2,reclined,22.8434,1.51104,-0.96734,0.06765,0.03522,-0.39831,-0.33932,-0.55429,-0.08232,1.02749,-0.05507,0.00957,-0.14335,1.17037,0.87792,0.00000,0.00000,-0.28656,0
2,reclined,22.8575,1.53168,-1.22280,0.00514,0.23522,-0.43555,-0.96261,-0.51068,-0.06612,0.99385,0.17314,0.06103,-0.06337,1.11933,0.88790,0.00000,0.00000,-0.93629,0
2,reclined,22.8773,1.52349,-1.22280,0.00514,0.44254,-0.46954,-1.25132,-0.51068,-0.06612,0.99385,0.17314,0.06103,-0.06337,1.11933,0.88790,0.00000,0.00000,-1.28522,0
2,reclined,22.8906,1.57074,-1.48736,-0.05905,0.44254,-0.46954,-1.25132,-0.40893,-0.03371,1.02028,0.31347,0.10144,0.12126,1.09970,0.92778,0.00000,0.00000,-1.31113,0
2,reclined,22.9087,1.56008,-1.56626,-0.05503,0.34628,-0.44573,-1.16870,-0.29975,-0.00387,1.08312,0.29405,0.07316,0.17451,1.12384,0.96377,0.00000,0.00000,-1.21718,0
2,reclined,22.9261,1.57937,-1.54220,-0.07025,-0.01189,-0.54378,-0.79862,-0.22289,0.02088,1.11693,0.18902,0.06247,0.06718,1.13914,0.98050,0.00000,0.00000,-0.79069,0
2,reclined,22.9417,1.59625,-1.44147,-0.09330,-0.31249,-0.85012,-0.33288,-0.19190,0.04090,1.11062,0.05347,0.05954,-0.04624,1.12782,0.98475,0.00000,0.00000,-0.30546,0
2,reclined,22.9605,1.63333,-1.36282,-0.13619,-0.41855,-1.14104,-0.01117,-0.19255,0.06516,1.07513,-0.01135,0.07016,-0.10892,1.09417,0.98259,0.00000,0.00000,-0.00528,0
2,reclined,22.9722,1.65377,-1.36282,-0.13619,-0.41855,-1.14104,-0.01117,-0.19255,0.06516,1.07513,-0.01135,0.07016,-0.10892,1.09417,0.98259,0.00000,0.00000,-0.00528,0
2,reclined,22.9915,1.65315,-1.37437,-0.13766,-0.35524,-1.48188,0.11649,-0.19504,0.08430,1.04491,0.00286,0.05212,-0.07910,1.06629,0.97994,0.00000,0.00000,0.06198,0
2,reclined,23.0075,1.69821,-1.46281,-0.16661,-0.39406,-1.47202,-0.16341,-0.17612,0.10561,1.02333,0.07112,0.05823,-0.05474,1.04373,0.98045,0.00000,0.00000,-0.24267,0
2,reclined,23.0235,1.68260,-1.59031,-0.12287,-0.39406,-1.47202,-0.16341,-0.12992,0.11445,1.01837,0.14977,0.01116,-0.00142,1.03298,0.98585,0.00000,0.00000,-0.27463,0
2,reclined,23.0423,1.52617,-1.69459,-0.01101,-0.57344,-1.15382,-0.36622,-0.06566,0.09478,1.01192,0.18798,-0.08387,-0.02888,1.01847,0.99357,0.00000,0.00000,-0.43427,0
2,reclined,23.0588,1.22754,-1.82645,0.12540,-0.73239,-0.99052,-0.44711,0.00728,0.04447,0.97820,0.21576,-0.15565,-0.12490,0.97924,0.99894,0.00000,0.00000,-0.49706,0
2,reclined,23.0770,1.23282,-1.82645,0.12540,-0.67825,-0.98544,-0.37305,0.00728,0.04447,0.97820,0.21576,-0.15565,-0.12490,0.97924,0.99894,0.00000,0.00000,-0.42245,0
2,reclined,23.0937,0.85211,-1.99500,0.20294,-0.38890,-1.15523,-0.07624,0.09251,-0.01266,0.92171,0.25142,-0.15928,-0.16017,0.92643,0.99491,0.00000,0.00000,-0.09890,0
2,reclined,23.1084,0.71458,-2.02507,0.25040,-0.38890,-1.15523,-0.07624,0.17495,-0.06994,0.88720,0.22238,-0.16166,-0.07356,0.90699,0.97819,0.00000,0.00000,-0.06051,0
2,reclined,23.1272,0.87589,-1.95370,0.23887,-0.08893,-1.40128,0.35754,0.22891,-0.11641,0.87992,0.12446,-0.11391,-0.00261,0.91663,0.95995,0.00000,0.00000,0.49897,0
2,reclined,23.1435,1.17911,-1.79768,0.18638,0.12141,-1.51207,0.71255,0.23318,-0.13749,0.89313,-0.01752,-0.04330,0.04106,0.93325,0.95701,0.00000,0.00000,0.93502,0
2,reclined,23.1594,1.34460,-1.75013,0.11244,0.23767,-1.65588,0.79348,0.21669,-0.13381,0.90073,-0.05156,0.02928,0.01019,0.93604,0.96227,0.00000,0.00000,1.05528,0
2,reclined,23.1778,1.33707,-1.77821,0.10343,0.30390,-1.48676,0.64409,0.20214,-0.12055,0.88366,-0.03060,0.03408,-0.06851,0.91447,0.96631,0.00000,0.00000,0.88555,0
2,reclined,23.1940,1.35033,-1.77821,0.10343,0.30390,-1.48676,0.64409,0.20214,-0.12055,0.88366,-0.03060,0.03408,-0.06851,0.91447,0.96631,0.00000,0.00000,0.88555,0
2,reclined,23.2099,1.12334,-1.91555,0.16872,0.42291,-1.33436,0.44641,0.21341,-0.12018,0.84923,0.05690,-0.01607,-0.09646,0.88384,0.96084,0.00000,0.00000,0.71248,0
2,reclined,23.2260,0.87975,-2.00902,0.22132,0.64369,-1.40579,0.42696,0.25320,-0.13966,0.83368,0.12591,-0.06136,-0.02468,0.88241,0.94478,0.00000,0.00000,0.81059,0
2,reclined,23.2426,0.96755,-1.99877,0.19421,0.81085,-1.62314,0.59701,0.29398,-0.15469,0.83883,0.10054,-0.03227,0.02600,0.90222,0.92975,0.00000,0.00000,1.09757,0
2,reclined,23.2604,1.16014,-1.93320,0.14472,0.80781,-1.59696,0.71605,0.30753,-0.15295,0.84849,0.02156,0.01767,0.01946,0.91537,0.92694,0.00000,0.00000,1.20197,0
2,reclined,23.2762,1.16250,-1.93320,0.14472,0.67781,-1.40850,0.62858,0.30753,-0.15295,0.84849,0.02156,0.01767,0.01946,0.91537,0.92694,0.00000,0.00000,1.04573,0
2,reclined,23.2918,1.35543,-1.91255,0.06497,0.67781,-1.40850,0.62858,0.30833,-0.13094,0.84830,-0.00560,0.07217,0.00278,0.91204,0.93011,0.00000,0.00000,1.01601,0
2,reclined,23.3084,1.48944,-1.86347,0.01519,0.51053,-1.19875,0.47081,0.29660,-0.10220,0.85574,-0.03471,0.08841,0.01338,0.91143,0.93890,0.00000,0.00000,0.74259,0
2,reclined,23.3220,1.63664,-1.95655,-0.04886,0.24235,-1.02521,0.23315,0.29755,-0.06541,0.84155,0.02049,0.10674,-0.05839,0.89499,0.94028,0.00000,0.00000,0.37473,0
2,reclined,23.3442,1.91533,-2.15073,-0.08875,0.00418,-0.82292,0.01321,0.32991,-0.02844,0.80310,0.11769,0.10112,-0.11982,0.86869,0.92450,0.00000,0.00000,0.04073,0
2,reclined,23.3576,1.91527,-2.15073,-0.08875,-0.12454,-0.57782,-0.06425,0.32991,-0.02844,0.80310,0.11769,0.10112,-0.11982,0.86869,0.92450,0.00000,0.00000,-0.08778,0
2,reclined,23.3719,1.93143,-2.21862,-0.06796,-0.25747,-0.20516,-0.04293,0.38012,-0.00278,0.77025,0.14118,0.06159,-0.08140,0.85895,0.89674,0.00000,0.00000,-0.15178,0
2,reclined,23.3909,1.65241,-2.24455,-0.03695,-0.25747,-0.20516,-0.04293,0.42204,0.00923,0.74329,0.11142,0.02238,-0.07512,0.85480,0.86955,0.00000,0.00000,-0.16667,0
2,reclined,23.4072,1.07383,-2.22081,0.03157,-0.39761,0.17830,-0.04760,0.44837,0.00349,0.72276,0.05990,-0.03001,-0.05419,0.85055,0.84976,0.00000,0.00000,-0.24932,0
2,reclined,23.4237,0.81934,-2.17978,0.11429,-0.49717,0.51600,-0.09123,0.45475,-0.01848,0.70459,0.00294,-0.07337,-0.04832,0.83880,0.84000,0.00000,0.00000,-0.35754,0
2,reclined,23.4384,0.61155,-2.18764,0.18104,-0.49184,0.72143,-0.19084,0.45065,-0.04936,0.68229,-0.01280,-0.08920,-0.06486,0.81917,0.83290,0.00000,0.00000,-0.47299,0
2,reclined,23.4584,0.54489,-2.19649,0.19579,-0.33085,0.81309,-0.30528,0.44912,-0.07797,0.66446,0.00280,-0.07507,-0.03900,0.80579,0.82461,0.00000,0.00000,-0.51482,0
2,reclined,23.4748,0.52554,-2.19649,0.19579,-0.02790,0.82687,-0.38109,0.44912,-0.07797,0.66446,0.00280,-0.07507,-0.03900,0.80579,0.82461,0.00000,0.00000,-0.40981,0
2,reclined,23.4922,0.81466,-2.13617,0.15437,-0.02790,0.82687,-0.38109,0.45746,-0.09601,0.68013,0.02499,-0.04412,0.08029,0.82527,0.82413,0.00000,0.00000,-0.42573,0
2,reclined,23.5120,1.02749,-2.05411,0.12902,0.23467,0.82763,-0.39526,0.46477,-0.10624,0.73611,0.01792,-0.02851,0.18359,0.87702,0.83933,0.00000,0.00000,-0.30766,0
2,reclined,23.5224,1.03530,-1.95346,0.19219,0.41911,0.89946,-0.46133,0.46451,-0.13552,0.83627,-0.00149,-0.10579,0.31408,0.96617,0.86555,0.00000,0.00000,-0.32396,0
2,reclined,23.5405,1.03190,-1.86939,0.25055,0.60619,1.05208,-0.66019,0.45865,-0.19608,0.98130,-0.02285,-0.18306,0.43459,1.10080,0.89144,0.00000,0.00000,-0.52336,0
2,reclined,23.5581,0.99374,-1.88662,0.25748,0.64224,0.93988,-0.86177,0.46019,-0.25631,1.12376,0.03105,-0.16017,0.37962,1.24109,0.90546,0.00000,0.00000,-0.73627,0
2,reclined,23.5765,0.97545,-1.88662,0.25748,0.45473,0.58390,-0.92284,0.46019,-0.25631,1.12376,0.03105,-0.16017,0.37962,1.24109,0.90546,0.00000,0.00000,-0.78757,0
2,reclined,23.5924,0.86134,-1.96393,0.25905,0.18328,0.27049,-0.68401,0.48997,-0.30168,1.21359,0.09563,-0.10342,0.19845,1.34309,0.90358,0.00000,0.00000,-0.61195,0
2,reclined,23.6085,0.88996,-2.02228,0.18426,0.18328,0.27049,-0.68401,0.50582,-0.29359,1.20017,0.02041,0.06880,-0.11492,1.33509,0.89894,0.00000,0.00000,-0.60493,0
2,reclined,23.6250,1.15586,-2.05036,0.06636,-0.01254,-0.00241,-0.40276,0.48953,-0.23808,1.10918,-0.06431,0.17684,-0.29153,1.23556,0.89772,0.00000,0.00000,-0.36607,0
2,reclined,23.6418,1.72852,-1.38042,-0.28818,-0.08907,0.12617,-0.26325,0.36164,-0.11892,1.02683,-0.53815,0.39544,-0.11087,1.09513,0.93764,0.00000,0.00000,-0.28994,0
2,reclined,23.6579,1.94117,-1.86572,-0.22807,-0.24183,0.66326,-0.78032,0.29943,0.00302,1.06308,0.07067,0.29252,0.15523,1.10445,0.96254,0.00000,0.00000,-0.81484,0
2,reclined,23.6754,1.95103,-1.86572,-0.22807,-0.80315,1.28984,-1.09659,0.29943,0.00302,1.06308,0.07067,0.29252,0.15523,1.10445,0.96254,0.00000,0.00000,-1.26974,0
2,reclined,23.6922,1.25477,-1.91796,0.07958,-0.74681,1.00620,-0.94721,0.28305,0.00707,0.98159,-0.01271,-0.07044,-0.23442,1.02161,0.96083,0.00000,0.00000,-1.11005,0
2,reclined,23.7071,1.30066,-1.97874,0.04113,-0.74681,1.00620,-0.94721,0.31538,-0.00907,0.94047,0.06304,-0.03018,-0.06489,0.99198,0.94807,0.00000,0.00000,-1.14465,0
2,reclined,23.7245,1.38347,-1.68325,0.07721,-0.52931,0.16731,-0.54746,0.27024,-0.02288,0.88854,-0.19030,-0.03223,-0.18063,0.92901,0.95644,0.00000,0.00000,-0.68171,0
2,reclined,23.7423,1.47587,-1.59530,0.01962,-0.22135,0.59083,-0.65118,0.19440,-0.02187,0.87929,-0.17205,0.00397,0.03292,0.90079,0.97613,0.00000,0.00000,-0.69776,0
2,reclined,23.7561,1.20199,-1.78247,0.16046,0.02065,1.26113,-1.09421,0.18995,-0.05195,0.91072,0.02506,-0.11369,0.08982,0.93177,0.97741,0.00000,0.00000,-1.13560,0
2,reclined,23.7769,1.18743,-1.78247,0.16046,0.09679,1.08572,-1.32009,0.18995,-0.05195,0.91072,0.02506,-0.11369,0.08982,0.93177,0.97741,0.00000,0.00000,-1.33107,0
2,reclined,23.7912,1.17644,-1.79011,0.16369,0.08898,-0.32905,-1.31103,0.20256,-0.08588,0.94262,0.03226,-0.09239,0.11086,0.96796,0.97383,0.00000,0.00000,-1.22890,0
2,reclined,23.8040,1.20026,-1.85958,0.11701,0.08898,-0.32905,-1.31103,0.23248,-0.10583,0.99133,0.09452,-0.02914,0.10935,1.02372,0.96837,0.00000,0.00000,-1.21534,0
2,reclined,23.8247,1.34984,-1.99057,0.00892,-0.09876,-2.30563,-1.22143,0.28015,-0.08315,0.99796,0.16190,0.07348,-0.00750,1.03986,0.95970,0.00000,0.00000,-1.01444,0
2,reclined,23.8397,1.30814,-1.96621,0.03047,-0.13172,-2.97239,-0.65973,0.32592,-0.06162,0.99842,0.09191,0.02856,0.00261,1.05207,0.94900,0.00000,0.00000,-0.49278,0
2,reclined,23.8567,1.32212,-1.91767,0.04454,0.25297,-2.45397,-0.18261,0.34677,-0.05939,1.01049,0.03244,0.00968,0.03852,1.06998,0.94440,0.00000,0.00000,0.04575,0
2,reclined,23.8748,1.31551,-1.91767,0.04454,0.50621,-1.74851,-0.39480,0.34677,-0.05939,1.01049,0.03244,0.00968,0.03852,1.06998,0.94440,0.00000,0.00000,-0.11173,0
2,reclined,23.8900,1.45161,-1.99174,-0.02762,0.50248,-0.80288,-0.59376,0.37213,-0.02956,0.99866,0.06299,0.05898,-0.02678,1.06615,0.93670,0.00000,0.00000,-0.35853,0
2,reclined,23.9068,1.72121,-2.02843,-0.11602,0.50248,-0.80288,-0.59376,0.39298,0.00908,0.96942,0.03612,0.10411,-0.09814,1.04609,0.92671,0.00000,0.00000,-0.36845,0
2,reclined,23.9218,0.97422,-2.00539,0.15435,0.64334,0.76153,0.00177,0.41447,-0.01476,0.96386,0.06139,-0.16109,0.06127,1.04930,0.91857,0.00000,0.00000,0.24503,0
2,reclined,23.9399,1.13469,-1.93018,0.11638,0.55756,1.13618,1.47242,0.39166,-0.01991,0.96168,-0.05186,-0.09304,-0.05726,1.03857,0.92597,0.00000,0.00000,1.55189,0
2,reclined,23.9574,1.32419,-1.85738,0.06347,0.09956,0.10927,2.37859,0.37603,-0.04272,0.95521,-0.09283,-0.02095,0.00577,1.02745,0.92969,0.00000,0.00000,2.24325,0
2,reclined,23.9712,1.33261,-1.85738,0.06347,0.13981,-0.92919,2.22308,0.37603,-0.04272,0.95521,-0.09283,-0.02095,0.00577,1.02745,0.92969,0.00000,0.00000,2.15658,0
2,reclined,23.9902,1.53753,-1.79320,-0.03182,0.14660,-0.78388,1.37635,0.32891,-0.02920,0.94091,-0.12626,0.05844,-0.04481,0.99717,0.94358,0.00000,0.00000,1.37000,0
2,reclined,24.0053,1.47696,-1.80202,0.00309,0.14660,-0.78388,1.37635,0.29588,-0.02510,0.94126,-0.07254,0.02209,0.00734,0.98699,0.95367,0.00000,0.00000,1.37646,0
2,reclined,24.0230,1.47070,-1.83942,0.00073,0.03925,-0.38472,0.39198,0.28035,-0.01842,0.93964,-0.02340,0.01772,-0.00623,0.98074,0.95809,0.00000,0.00000,0.39400,0
2,reclined,24.0393,1.68347,-1.86736,-0.10842,0.05607,-0.01947,-0.09008,0.27710,0.00623,0.92832,-0.00724,0.09429,-0.04517,0.96882,0.95820,0.00000,0.00000,-0.07040,0
2,reclined,24.0550,1.67228,-1.86736,-0.10842,0.04623,0.10549,-0.41681,0.27710,0.00623,0.92832,-0.00724,0.09429,-0.04517,0.96882,0.95820,0.00000,0.00000,-0.38549,0
2,reclined,24.0734,1.71469,-2.00519,-0.10895,0.08627,0.18391,-0.50113,0.30296,0.03413,0.90905,0.09403,0.06905,-0.05337,0.95881,0.94810,0.00000,0.00000,-0.44132,0
2,reclined,24.0890,1.72322,-1.96991,-0.11621,0.10667,0.06299,-0.34399,0.32467,0.05492,0.89803,0.04604,0.05644,-0.01905,0.95650,0.93887,0.00000,0.00000,-0.28314,0
2,reclined,24.1069,1.63679,-1.98997,-0.08173,0.10667,0.06299,-0.34399,0.34527,0.06446,0.90610,0.06720,0.01855,0.01960,0.97180,0.93240,0.00000,0.00000,-0.27866,0
2,reclined,24.1226,1.53858,-2.02523,-0.05150,-0.06060,-0.18716,-0.05517,0.37272,0.06378,0.90585,0.07047,-0.01173,0.00132,0.98161,0.92282,0.00000,0.00000,-0.08609,0
2,reclined,24.1397,1.47001,-2.01769,-0.02561,-0.06060,-0.18716,-0.05517,0.39181,0.05441,0.91156,0.05048,-0.02819,0.01136,0.99369,0.91735,0.00000,0.00000,-0.08476,0
2,reclined,24.1583,1.38767,-2.02745,-0.00024,-0.11568,-0.23037,0.05731,0.40631,0.04210,0.90973,0.03618,-0.04186,-0.00905,0.99723,0.91226,0.00000,0.00000,-0.00458,0
2,reclined,24.1732,1.38239,-2.02745,-0.00024,-0.10344,-0.22010,0.08688,0.40631,0.04210,0.90973,0.03618,-0.04186,-0.00905,0.99723,0.91226,0.00000,0.00000,0.02782,0
2,reclined,24.1899,1.37983,-1.98919,0.00973,-0.01484,-0.01639,0.11821,0.41126,0.02889,0.90830,-0.00445,-0.03863,0.00661,0.99749,0.91059,0.00000,0.00000,0.10105,0
2,reclined,24.2072,1.39978,-1.95253,0.00880,-0.01484,-0.01639,0.11821,0.40124,0.02095,0.91387,-0.03051,-0.02970,0.00966,0.99829,0.91543,0.00000,0.00000,0.10190,0
2,reclined,24.2228,1.44907,-1.91537,-0.00730,0.09331,0.40221,0.03526,0.38368,0.01873,0.91772,-0.05618,-0.01166,-0.00520,0.99488,0.92245,0.00000,0.00000,0.07608,0
2,reclined,24.2396,1.26023,-1.93009,0.07874,0.09331,0.40221,0.03526,0.37334,-0.00136,0.91995,-0.00492,-0.08132,0.06095,0.99282,0.92660,0.00000,0.00000,0.06721,0
2,reclined,24.2568,1.25771,-1.93009,0.07874,0.14051,0.41245,0.06640,0.37334,-0.00136,0.91995,-0.00492,-0.08132,0.06095,0.99282,0.92660,0.00000,0.00000,0.11380,0
2,reclined,24.2720,1.19982,-1.90222,0.11325,0.03321,0.06966,0.10722,0.37108,-0.03389,0.95340,-0.01476,-0.09065,0.08204,1.02363,0.93139,0.00000,0.00000,0.10959,0
2,reclined,24.2884,1.23267,-1.89513,0.10122,-0.05664,-0.23132,0.06855,0.36337,-0.05535,0.97297,-0.01844,-0.05458,0.05297,1.04008,0.93548,0.00000,0.00000,0.05665,0
2,reclined,24.3061,1.28154,-1.94260,0.06056,-0.05664,-0.23132,0.06855,0.36260,-0.06056,0.96773,0.00150,-0.00021,-0.03399,1.03520,0.93482,0.00000,0.00000,0.05777,0
2,reclined,24.3212,1.38577,-1.94454,0.01613,-0.06395,-0.26361,-0.00303,0.36379,-0.05053,0.95661,-0.00049,0.03447,-0.03025,1.02469,0.93356,0.00000,0.00000,-0.01253,0
2,reclined,24.3374,1.37514,-1.91400,0.02837,-0.02561,0.03362,-0.07509,0.35793,-0.04323,0.95205,-0.02029,0.01476,-0.00721,1.01802,0.93519,0.00000,0.00000,-0.08066,0
2,reclined,24.3576,1.36798,-1.91205,0.03638,-0.00226,0.20001,-0.12845,0.35298,-0.04103,0.95439,-0.01175,0.00392,0.00639,1.01840,0.93715,0.00000,0.00000,-0.12922,0
2,reclined,24.3720,1.36583,-1.91205,0.03638,-0.02212,0.10369,-0.13563,0.35298,-0.04103,0.95439,-0.01175,0.00392,0.00639,1.01840,0.93715,0.00000,0.00000,-0.13895,0
2,reclined,24.3867,1.39368,-1.93848,0.01309,-0.03702,0.01417,-0.07894,0.35460,-0.03527,0.95215,0.00580,0.02215,-0.01654,1.01665,0.93656,0.00000,0.00000,-0.08734,0
2,reclined,24.4067,1.38550,-1.92880,0.01840,-0.03702,0.01417,-0.07894,0.35462,-0.02954,0.94728,-0.00261,0.01106,-0.00640,1.01192,0.93613,0.00000,0.00000,-0.08729,0
2,reclined,24.4226,1.36691,-1.92914,0.02727,-0.02770,-0.09599,0.01464,0.35444,-0.02913,0.94774,-0.00083,0.00163,-0.00356,1.01227,0.93626,0.00000,0.00000,0.00677,0
2,reclined,24.4387,1.36468,-1.95985,0.02376,-0.03244,-0.22961,0.06250,0.35867,-0.02805,0.94075,0.01828,0.00443,-0.02124,1.00720,0.93403,0.00000,0.00000,0.05322,0
2,reclined,24.4590,1.36129,-1.95985,0.02376,-0.01779,-0.27439,0.06077,0.35867,-0.02805,0.94075,0.01828,0.00443,-0.02124,1.00720,0.93403,0.00000,0.00000,0.05807,0
2,reclined,24.4725,1.36889,-1.99181,0.01753,0.01202,-0.17768,0.04435,0.37030,-0.02568,0.93042,0.03318,0.00837,-0.02937,1.00173,0.92882,0.00000,0.00000,0.05019,0
2,reclined,24.4897,1.40903,-1.98267,0.00558,0.03171,-0.07165,-0.01434,0.37672,-0.01755,0.92035,0.01687,0.01206,-0.01942,0.99462,0.92533,0.00000,0.00000,0.00001,0
2,reclined,24.5072,1.34369,-1.99542,0.02682,0.05429,-0.06620,-0.01930,0.38561,-0.01810,0.91737,0.02607,-0.00871,-0.00682,0.99528,0.92172,0.00000,0.00000,0.00445,0
2,reclined,24.5226,1.37146,-1.98982,0.01478,0.05965,-0.09205,-0.00851,0.39225,-0.01832,0.91629,0.01357,0.00357,-0.00515,0.99689,0.91915,0.00000,0.00000,0.01734,0
2,reclined,24.5393,1.39439,-1.99188,0.00444,0.04891,-0.01957,-0.04492,0.39467,-0.01476,0.91218,0.00904,0.01038,-0.01078,0.99401,0.91768,0.00000,0.00000,-0.02151,0
2,reclined,24.5557,1.39254,-1.99188,0.00444,0.04891,-0.01957,-0.04492,0.39467,-0.01476,0.91218,0.00904,0.01038,-0.01078,0.99401,0.91768,0.00000,0.00000,-0.02151,0
2,reclined,24.5712,1.37765,-1.99033,0.00981,0.03914,0.03118,-0.07917,0.39776,-0.01340,0.90972,0.00683,0.00366,-0.00259,0.99297,0.91616,0.00000,0.00000,-0.05728,0
2,reclined,24.5897,1.39727,-1.98112,0.00943,0.02806,0.05769,-0.11355,0.39776,-0.01264,0.90959,-0.00134,0.00327,0.00169,0.99284,0.91615,0.00000,0.00000,-0.09352,0
2,reclined,24.6079,1.41729,-1.98296,0.00173,-0.00078,0.04703,-0.14284,0.39689,-0.00988,0.90860,-0.00331,0.00818,-0.00840,0.99155,0.91634,0.00000,0.00000,-0.13167,0
2,reclined,24.6218,1.42538,-1.99203,-0.00422,-0.00833,0.12910,-0.17735,0.39748,-0.00686,0.90465,0.00278,0.01099,-0.01130,0.98815,0.91550,0.00000,0.00000,-0.16661,0
2,reclined,24.6370,1.41055,-1.97921,-0.00111,0.01126,0.21290,-0.19324,0.39603,-0.00461,0.90272,-0.00647,0.00570,-0.00252,0.98578,0.91574,0.00000,0.00000,-0.17343,0
2,reclined,24.6547,1.39202,-1.97921,-0.00111,0.01126,0.21290,-0.19324,0.39603,-0.00461,0.90272,-0.00647,0.00570,-0.00252,0.98578,0.91574,0.00000,0.00000,-0.17343,0
2,reclined,24.6710,1.40633,-1.98317,-0.00460,0.01965,0.18611,-0.20458,0.39395,-0.00171,0.90193,-0.00234,0.00620,-0.00674,0.98422,0.91640,0.00000,0.00000,-0.17993,0
2,reclined,24.6878,1.27152,-2.02512,0.03230,0.02716,0.00834,-0.17363,0.40948,-0.00572,0.90333,0.04055,-0.02741,0.01810,0.99182,0.91078,0.00000,0.00000,-0.14698,0
2,reclined,24.7032,1.27090,-1.97039,0.05028,0.03949,-0.04039,-0.09419,0.41272,-0.01909,0.91847,-0.00707,-0.03339,0.04207,1.00712,0.91198,0.00000,0.00000,-0.06896,0
2,reclined,24.7200,1.30021,-1.96576,0.04181,0.08883,0.09341,-0.03014,0.40621,-0.02684,0.92510,-0.01528,-0.01566,0.01268,1.01072,0.91530,0.00000,0.00000,0.00563,0
2,reclined,24.7376,1.35421,-1.92341,0.03009,0.15004,0.18881,0.00536,0.39273,-0.02802,0.93050,-0.04361,-0.00240,0.01821,1.01037,0.92095,0.00000,0.00000,0.05802,0
2,reclined,24.7531,1.33893,-1.92341,0.03009,0.15004,0.18881,0.00536,0.39273,-0.02802,0.93050,-0.04361,-0.00240,0.01821,1.01037,0.92095,0.00000,0.00000,0.05802,1
3,swing_left,24.4067,1.38550,-1.92880,0.01840,-0.03702,0.01417,-0.07894,0.35462,-0.02954,0.94728,-0.00261,0.01106,-0.00640,1.01192,0.93613,0.00000,0.00000,-0.08729,0
3,swing_left,24.4226,1.36691,-1.92914,0.02727,-0.02770,-0.09599,0.01464,0.35444,-0.02913,0.94774,-0.00083,0.00163,-0.00356,1.01227,0.93626,0.00000,0.00000,0.00677,0
3,swing_left,24.4387,1.36468,-1.95985,0.02376,-0.03244,-0.22961,0.06250,0.35867,-0.02805,0.94075,0.01828,0.00443,-0.02124,1.00720,0.93403,0.00000,0.00000,0.05322,0
3,swing_left,24.4590,1.36129,-1.95985,0.02376,-0.01779,-0.27439,0.06077,0.35867,-0.02805,0.94075,0.01828,0.00443,-0.02124,1.00720,0.93403,0.00000,0.00000,0.05807,0
3,swing_left,24.4725,1.36889,-1.99181,0.01753,0.01202,-0.17768,0.04435,0.37030,-0.02568,0.93042,0.03318,0.00837,-0.02937,1.00173,0.92882,0.00000,0.00000,0.05019,0
3,swing_left,24.4897,1.40903,-1.98267,0.00558,0.03171,-0.07165,-0.01434,0.37672,-0.01755,0.92035,0.01687,0.01206,-0.01942,0.99462,0.92533,0.00000,0.00000,0.00001,0
3,swing_left,24.5072,1.34369,-1.99542,0.02682,0.05429,-0.06620,-0.01930,0.38561,-0.01810,0.91737,0.02607,-0.00871,-0.00682,0.99528,0.92172,0.00000,0.00000,0.00445,0
3,swing_left,24.5226,1.37146,-1.98982,0.01478,0.05965,-0.09205,-0.00851,0.39225,-0.01832,0.91629,0.01357,0.00357,-0.00515,0.99689,0.91915,0.00000,0.00000,0.01734,0
3,swing_left,24.5393,1.39439,-1.99188,0.00444,0.04891,-0.01957,-0.04492,0.39467,-0.01476,0.91218,0.00904,0.01038,-0.01078,0.99401,0.91768,0.00000,0.00000,-0.02151,0
3,swing_left,24.5557,1.39254,-1.99188,0.00444,0.04891,-0.01957,-0.04492,0.39467,-0.01476,0.91218,0.00904,0.01038,-0.01078,0.99401,0.91768,0.00000,0.00000,-0.02151,0
3,swing_left,24.5712,1.37765,-1.99033,0.00981,0.03914,0.03118,-0.07917,0.39776,-0.01340,0.90972,0.00683,0.00366,-0.00259,0.99297,0.91616,0.00000,0.00000,-0.05728,0
3,swing_left,24.5897,1.39727,-1.98112,0.00943,0.02806,0.05769,-0.11355,0.39776,-0.01264,0.90959,-0.00134,0.00327,0.00169,0.99284,0.91615,0.00000,0.00000,-0.09352,0
3,swing_left,24.6079,1.41729,-1.98296,0.00173,-0.00078,0.04703,-0.14284,0.39689,-0.00988,0.90860,-0.00331,0.00818,-0.00840,0.99155,0.91634,0.00000,0.00000,-0.13167,0
3,swing_left,24.6218,1.42538,-1.99203,-0.00422,-0.00833,0.12910,-0.17735,0.39748,-0.00686,0.90465,0.00278,0.01099,-0.01130,0.98815,0.91550,0.00000,0.00000,-0.16661,0
3,swing_left,24.6370,1.41055,-1.97921,-0.00111,0.01126,0.21290,-0.19324,0.39603,-0.00461,0.90272,-0.00647,0.00570,-0.00252,0.98578,0.91574,0.00000,0.00000,-0.17343,0
3,swing_left,24.6547,1.39202,-1.97921,-0.00111,0.01126,0.21290,-0.19324,0.39603,-0.00461,0.90272,-0.00647,0.00570,-0.00252,0.98578,0.91574,0.00000,0.00000,-0.17343,0
3,swing_left,24.6710,1.40633,-1.98317,-0.00460,0.01965,0.18611,-0.20458,0.39395,-0.00171,0.90193,-0.00234,0.00620,-0.00674,0.98422,0.91640,0.00000,0.00000,-0.17993,0
3,swing_left,24.6878,1.27152,-2.02512,0.03230,0.02716,0.00834,-0.17363,0.40948,-0.00572,0.90333,0.04055,-0.02741,0.01810,0.99182,0.91078,0.00000,0.00000,-0.14698,0
3,swing_left,24.7032,1.27090,-1.97039,0.05028,0.03949,-0.04039,-0.09419,0.41272,-0.01909,0.91847,-0.00707,-0.03339,0.04207,1.00712,0.91198,0.00000,0.00000,-0.06896,0
3,swing_left,24.7200,1.30021,-1.96576,0.04181,0.08883,0.09341,-0.03014,0.40621,-0.02684,0.92510,-0.01528,-0.01566,0.01268,1.01072,0.91530,0.00000,0.00000,0.00563,0
3,swing_left,24.7376,1.35421,-1.92341,0.03009,0.15004,0.18881,0.00536,0.39273,-0.02802,0.93050,-0.04361,-0.00240,0.01821,1.01037,0.92095,0.00000,0.00000,0.05802,0
3,swing_left,24.7531,1.33893,-1.92341,0.03009,0.15004,0.18881,0.00536,0.39273,-0.02802,0.93050,-0.04361,-0.00240,0.01821,1.01037,0.92095,0.00000,0.00000,0.05802,0
3,swing_left,24.7764,1.32872,-1.96129,0.02182,0.15801,0.16253,-0.03571,0.38702,-0.02758,0.93529,0.00136,0.00531,0.00819,1.01258,0.92367,0.00000,0.00000,0.02299,0
3,swing_left,24.7866,1.33275,-1.96969,0.01809,0.12031,0.10029,-0.08847,0.38904,-0.02505,0.93640,0.00785,0.00657,0.00523,1.01431,0.92319,0.00000,0.00000,-0.03800,0
3,swing_left,24.8034,1.32655,-1.97106,0.01891,0.06312,0.22689,-0.13013,0.39267,-0.02265,0.94156,0.01073,0.00307,0.01186,1.02041,0.92273,0.00000,0.00000,-0.10082,0
3,swing_left,24.8185,1.35533,-1.96987,0.01426,0.00971,0.20429,-0.09821,0.39440,-0.02131,0.94070,-0.00009,0.00684,-0.00565,1.02025,0.92202,0.00000,0.00000,-0.09106,0
3,swing_left,24.8367,1.34644,-1.96987,0.01426,0.00971,0.20429,-0.09821,0.39440,-0.02131,0.94070,-0.00009,0.00684,-0.00565,1.02025,0.92202,0.00000,0.00000,-0.09106,0
3,swing_left,24.8534,1.33149,-1.97430,0.02113,-0.00428,0.12679,-0.02859,0.39632,-0.02182,0.94035,0.00595,0.00017,0.00188,1.02068,0.92129,0.00000,0.00000,-0.03072,0
3,swing_left,24.8738,1.37872,-1.96227,0.00264,-0.02143,0.04034,0.03651,0.39278,-0.01750,0.93816,-0.00861,0.01484,-0.00749,1.01721,0.92228,0.00000,0.00000,0.02470,0
3,swing_left,24.8882,1.39460,-1.94117,0.00023,-0.01327,0.00052,0.07130,0.38594,-0.01381,0.93399,-0.02766,0.01358,-0.01129,1.01068,0.92412,0.00000,0.00000,0.06081,0
3,swing_left,24.9035,1.42546,-1.92440,-0.01355,0.03286,-0.00192,0.07176,0.37396,-0.00732,0.93313,-0.03068,0.02075,-0.00313,1.00531,0.92821,0.00000,0.00000,0.07885,0
3,swing_left,24.9191,1.47846,-1.92674,-0.03206,0.05404,-0.03564,0.07867,0.36597,0.00141,0.93072,-0.02149,0.03029,-0.00416,1.00009,0.93064,0.00000,0.00000,0.09294,0
3,swing_left,24.9383,1.48023,-1.92666,-0.02778,0.07904,-0.04418,0.07839,0.35878,0.01031,0.92933,-0.01479,0.01712,-0.00385,0.99623,0.93284,0.00000,0.00000,0.10113,0
3,swing_left,24.9535,1.47698,-1.92666,-0.02778,0.07904,-0.04418,0.07839,0.35878,0.01031,0.92933,-0.01479,0.01712,-0.00385,0.99623,0.93284,0.00000,0.00000,0.10113,0
3,swing_left,24.9682,1.44415,-1.91717,-0.01540,0.09591,-0.13531,0.12357,0.35549,0.01124,0.93354,-0.01350,0.00428,0.01400,0.99900,0.93448,0.00000,0.00000,0.14808,0
3,swing_left,24.9869,1.50394,-1.92035,-0.04115,0.06418,-0.29411,0.16321,0.34868,0.01796,0.93160,-0.01412,0.02226,-0.01380,0.99488,0.93640,0.00000,0.00000,0.17001,0
3,swing_left,25.0029,1.53065,-1.96052,-0.05880,0.02108,-0.29038,0.11315,0.35167,0.02870,0.92132,0.01475,0.02807,-0.02920,0.98657,0.93386,0.00000,0.00000,0.10473,0
3,swing_left,25.0213,1.40705,-1.97354,-0.00737,-0.02565,-0.13743,0.02839,0.36165,0.02713,0.91673,0.02782,-0.01981,-0.00253,0.98586,0.92988,0.00000,0.00000,0.01321,0
3,swing_left,25.0359,1.45658,-1.98859,-0.02445,-0.09353,-0.10907,-0.09216,0.37084,0.02474,0.91442,0.02746,-0.00074,-0.01721,0.98707,0.92640,0.00000,0.00000,-0.12325,0
3,swing_left,25.0526,1.44753,-1.98859,-0.02445,-0.09353,-0.10907,-0.09216,0.37084,0.02474,0.91442,0.02746,-0.00074,-0.01721,0.98707,0.92640,0.00000,0.00000,-0.12325,0
3,swing_left,25.0716,1.39782,-2.01085,-0.00842,-0.09499,0.00871,-0.12484,0.38485,0.02142,0.90893,0.04056,-0.01301,-0.00541,0.98728,0.92064,0.00000,0.00000,-0.15177,0
3,swing_left,25.0868,1.32878,-1.99693,0.01865,-0.05642,0.14091,-0.07637,0.39397,0.01171,0.91018,0.02163,-0.03047,0.00534,0.99185,0.91765,0.00000,0.00000,-0.09083,0
3,swing_left,25.1026,1.36846,-1.98895,0.00437,0.00341,0.15450,-0.00849,0.39781,0.00631,0.91176,0.00825,-0.01067,0.00205,0.99479,0.91654,0.00000,0.00000,-0.00544,0
3,swing_left,25.1188,1.43660,-1.98197,-0.02014,0.02989,0.03847,0.07601,0.39693,0.00820,0.90898,-0.00496,0.01155,-0.01004,0.99190,0.91641,0.00000,0.00000,0.08194,0
3,swing_left,25.1367,1.37678,-1.98254,0.00105,0.09228,0.14199,0.10484,0.39680,0.00995,0.90928,0.00955,-0.01101,0.02120,0.99214,0.91649,0.00000,0.00000,0.13441,0
3,swing_left,25.1543,1.39181,-1.98254,0.00105,0.15257,0.22433,0.14023,0.39680,0.00995,0.90928,0.00955,-0.01101,0.02120,0.99214,0.91649,0.00000,0.00000,0.19178,0
3,swing_left,25.1684,1.41985,-1.96056,-0.00686,0.15257,0.22433,0.14023,0.39412,0.00791,0.91515,-0.01463,-0.00106,0.00869,0.99644,0.91842,0.00000,0.00000,0.19091,0
3,swing_left,25.1860,1.45784,-1.96346,-0.02182,0.14959,0.18651,0.18441,0.39038,0.01019,0.91485,-0.01215,0.01138,-0.00163,0.99471,0.91971,0.00000,0.00000,0.23022,0
3,swing_left,25.2028,1.46465,-1.95335,-0.02281,0.12579,0.17746,0.18964,0.38470,0.01432,0.91440,-0.01782,0.00811,-0.00261,0.99213,0.92165,0.00000,0.00000,0.22611,0
3,swing_left,25.2181,1.44896,-1.92359,-0.01553,0.11938,0.20931,0.17616,0.37581,0.01471,0.92051,-0.02810,0.00092,0.02386,0.99438,0.92571,0.00000,0.00000,0.21129,0
3,swing_left,25.2352,1.44718,-1.92359,-0.01553,0.08550,0.17213,0.15075,0.37581,0.01471,0.92051,-0.02810,0.00092,0.02386,0.99438,0.92571,0.00000,0.00000,0.17441,0
3,swing_left,25.2525,1.42738,-1.92216,-0.00476,0.08550,0.17213,0.15075,0.36749,0.01268,0.92701,-0.02184,-0.00791,0.01592,0.99727,0.92954,0.00000,0.00000,0.17383,0
3,swing_left,25.2685,1.41150,-1.93345,-0.00428,0.05476,0.06780,0.12785,0.36391,0.01039,0.93054,-0.00729,-0.00609,0.00931,0.99922,0.93126,0.00000,0.00000,0.13971,0
3,swing_left,25.2841,1.39026,-1.94055,0.00323,0.03842,0.03995,0.12334,0.36380,0.00712,0.93373,0.00076,-0.01038,0.00685,1.00212,0.93175,0.00000,0.00000,0.12915,0
3,swing_left,25.3007,1.40408,-1.94043,0.00301,0.03299,0.02425,0.13428,0.36305,0.00398,0.93432,-0.00071,-0.00699,0.00091,1.00238,0.93210,0.00000,0.00000,0.13721,0
3,swing_left,25.3188,1.44291,-1.94681,-0.01055,0.00723,-0.01241,0.11338,0.36353,0.00518,0.93215,0.00169,0.00532,-0.00706,1.00054,0.93164,0.00000,0.00000,0.10819,0
3,swing_left,25.3358,1.43671,-1.94681,-0.01055,-0.01259,-0.00561,0.08513,0.36353,0.00518,0.93215,0.00169,0.00532,-0.00706,1.00054,0.93164,0.00000,0.00000,0.07471,0
3,swing_left,25.3510,1.42667,-1.93150,-0.00672,-0.01259,-0.00561,0.08513,0.36146,0.00592,0.93255,-0.00790,0.00081,0.00475,1.00017,0.93239,0.00000,0.00000,0.07480,0
3,swing_left,25.3702,1.43250,-1.93314,-0.00767,-0.02745,-0.04198,0.08648,0.35980,0.00628,0.93447,-0.00343,0.00143,0.00562,1.00137,0.93320,0.00000,0.00000,0.07058,0
3,swing_left,25.3857,1.39312,-1.93576,0.00813,-0.02790,-0.10539,0.13861,0.35996,0.00302,0.93697,0.00194,-0.01127,0.01020,1.00374,0.93348,0.00000,0.00000,0.11907,0
3,swing_left,25.4010,1.43450,-1.94289,-0.00911,-0.02691,-0.12880,0.18474,0.36066,0.00320,0.93614,0.00005,0.00583,-0.01190,1.00322,0.93314,0.00000,0.00000,0.16230,0
3,swing_left,25.4203,1.45101,-1.94404,-0.00996,-0.01414,-0.13281,0.18581,0.35964,0.00618,0.93123,0.00230,0.00371,-0.00699,0.99828,0.93283,0.00000,0.00000,0.16741,0
3,swing_left,25.4345,1.44223,-1.94404,-0.00996,-0.00778,-0.12642,0.17673,0.35964,0.00618,0.93123,0.00230,0.00371,-0.00699,0.99828,0.93283,0.00000,0.00000,0.16128,0
3,swing_left,25.4524,1.39702,-1.95725,0.00624,-0.01274,-0.19555,0.22901,0.36495,0.00312,0.93278,0.01618,-0.00942,0.00387,1.00164,0.93126,0.00000,0.00000,0.20801,0
3,swing_left,25.4692,1.43079,-1.95476,-0.00567,-0.01274,-0.19555,0.22901,0.36736,0.00330,0.93030,0.00407,0.00232,-0.01094,1.00021,0.93010,0.00000,0.00000,0.20768,0
3,swing_left,25.4857,1.40114,-1.96384,0.00436,-0.01009,-0.16689,0.26673,0.37153,0.00176,0.92826,0.01238,-0.00613,-0.00234,0.99985,0.92840,0.00000,0.00000,0.24359,0
3,swing_left,25.5026,1.39259,-1.97042,0.01115,-0.00003,-0.11436,0.29601,0.37596,-0.00144,0.92710,0.01428,-0.00974,-0.00314,1.00043,0.92670,0.00000,0.00000,0.27446,0
3,swing_left,25.5190,1.41760,-1.96559,-0.00027,0.01043,-0.05639,0.33504,0.37967,-0.00219,0.92724,0.00703,0.00247,0.00086,1.00196,0.92542,0.00000,0.00000,0.31413,0
3,swing_left,25.5345,1.42781,-1.96559,-0.00027,0.02580,0.01867,0.40461,0.37967,-0.00219,0.92724,0.00703,0.00247,0.00086,1.00196,0.92542,0.00000,0.00000,0.38417,0
3,swing_left,25.5538,1.40165,-1.97817,0.00557,0.05619,0.10732,0.50068,0.38415,-0.00223,0.92535,0.01290,-0.00335,-0.00519,1.00193,0.92357,0.00000,0.00000,0.48372,0
3,swing_left,25.5703,1.40037,-1.97920,0.00757,0.05619,0.10732,0.50068,0.38817,-0.00341,0.92374,0.00729,-0.00413,-0.00990,1.00199,0.92191,0.00000,0.00000,0.48299,0
3,swing_left,25.5870,1.37347,-1.95520,0.02227,0.10194,0.14879,0.60845,0.38760,-0.00732,0.92041,-0.01873,-0.01459,-0.00855,0.99872,0.92159,0.00000,0.00000,0.59921,0
3,swing_left,25.6034,1.37218,-1.96430,0.01973,0.12674,0.09043,0.64920,0.38554,-0.01024,0.91989,-0.00249,-0.00947,0.00277,0.99747,0.92222,0.00000,0.00000,0.64677,0
3,swing_left,25.6217,1.39139,-1.95439,0.01855,0.11045,0.04182,0.67923,0.38443,-0.01317,0.92131,-0.01371,-0.00521,-0.00276,0.99839,0.92280,0.00000,0.00000,0.66877,0
3,swing_left,25.6368,1.39506,-1.95439,0.01855,0.11528,0.13658,0.70215,0.38443,-0.01317,0.92131,-0.01371,-0.00521,-0.00276,0.99839,0.92280,0.00000,0.00000,0.69053,0
3,swing_left,25.6528,1.35629,-1.98393,0.02664,0.10275,0.19137,0.73367,0.38978,-0.01544,0.92136,0.01732,-0.01157,0.00734,1.00054,0.92087,0.00000,0.00000,0.71269,0
3,swing_left,25.6681,1.36672,-1.97626,0.03117,0.10275,0.19137,0.73367,0.38913,-0.02058,0.92833,0.01904,-0.01168,0.02255,1.00679,0.92206,0.00000,0.00000,0.71229,0
3,swing_left,25.6859,1.34890,-1.95696,0.04234,0.09343,0.22846,0.79860,0.38794,-0.02646,0.93077,-0.00996,-0.01605,-0.00112,1.00873,0.92272,0.00000,0.00000,0.76682,0
3,swing_left,25.7012,1.31684,-1.97326,0.04814,0.10262,0.24541,0.87751,0.39312,-0.03108,0.93168,0.00599,-0.01801,0.00586,1.01170,0.92091,0.00000,0.00000,0.84044,0
3,swing_left,25.7190,1.31988,-1.97326,0.04814,0.08848,0.31716,0.94456,0.39312,-0.03108,0.93168,0.00599,-0.01801,0.00586,1.01170,0.92091,0.00000,0.00000,0.89449,0
3,swing_left,25.7346,1.39547,-1.94262,0.03098,0.06973,0.33358,0.97857,0.38814,-0.03068,0.93230,-0.02541,-0.00025,-0.00214,1.01034,0.92276,0.00000,0.00000,0.91964,0
3,swing_left,25.7499,1.39821,-1.90559,0.04167,0.06841,0.20779,0.98964,0.37413,-0.03251,0.93659,-0.04686,-0.00902,0.00415,1.00908,0.92817,0.00000,0.00000,0.93722,0
3,swing_left,25.7691,1.41798,-1.92853,0.02878,0.06841,0.20779,0.98964,0.36138,-0.03381,0.94183,-0.00038,0.00413,0.02389,1.00935,0.93311,0.00000,0.00000,0.94098,0
3,swing_left,25.7836,1.37782,-1.92530,0.04546,0.06100,0.08405,1.08245,0.35721,-0.03793,0.94355,-0.01056,-0.00750,-0.00699,1.00962,0.93456,0.00000,0.00000,1.03005,0
3,swing_left,25.8028,1.50618,-1.99327,-0.00660,0.08743,0.15780,1.20651,0.36853,-0.03156,0.93985,0.04854,0.03827,-0.01208,1.01001,0.93053,0.00000,0.00000,1.14967,0
3,swing_left,25.8181,1.50893,-1.96624,-0.00208,0.12809,0.22779,1.31106,0.36508,-0.02543,0.93782,0.02605,0.02754,-0.00085,1.00670,0.93158,0.00000,0.00000,1.26206,0
3,swing_left,25.8337,1.51806,-1.96624,-0.00208,0.11824,0.15057,1.43265,0.36508,-0.02543,0.93782,0.02605,0.02754,-0.00085,1.00670,0.93158,0.00000,0.00000,1.37371,0
3,swing_left,25.8536,1.41647,-1.90957,0.05336,0.14327,0.14006,1.48981,0.35828,-0.03045,0.92421,-0.05184,-0.01880,-0.05453,0.99170,0.93195,0.00000,0.00000,1.43589,0
3,swing_left,25.8690,1.60490,-1.91667,-0.02179,0.14327,0.14006,1.48981,0.35307,-0.01159,0.91524,-0.03876,0.03180,-0.04302,0.98105,0.93292,0.00000,0.00000,1.43978,0
3,swing_left,25.8850,1.48626,-1.93351,0.02196,0.22804,0.33071,1.49715,0.34784,-0.01316,0.91269,0.00400,-0.00862,0.01443,0.97682,0.93435,0.00000,0.00000,1.47562,0
3,swing_left,25.9009,1.41969,-1.89065,0.05882,0.32687,0.45528,1.58049,0.33769,-0.02427,0.91557,-0.03390,-0.03262,0.00163,0.97616,0.93793,0.00000,0.00000,1.58414,0
3,swing_left,25.9189,1.46596,-1.83888,0.03950,0.38456,0.35320,1.61669,0.32327,-0.03362,0.92969,-0.04863,-0.00735,0.07012,0.98486,0.94398,0.00000,0.00000,1.64029,0
3,swing_left,25.9370,1.47696,-1.83888,0.03950,0.36312,0.12947,1.61500,0.32327,-0.03362,0.92969,-0.04863,-0.00735,0.07012,0.98486,0.94398,0.00000,0.00000,1.63929,0
3,swing_left,25.9547,1.47638,-1.75879,0.04737,0.32394,0.05762,1.53534,0.29524,-0.03921,0.94912,-0.10537,-0.00895,0.04897,0.99475,0.95413,0.00000,0.00000,1.55878,0
3,swing_left,25.9673,1.53912,-1.78717,0.01140,0.32394,0.05762,1.53534,0.27372,-0.03063,0.95187,-0.06576,0.01959,-0.00578,0.99092,0.96059,0.00000,0.00000,1.56254,0
3,swing_left,25.9848,1.51310,-1.76208,0.03083,0.28818,0.05846,1.56445,0.25339,-0.02843,0.95191,-0.06669,-0.00186,0.01217,0.98546,0.96595,0.00000,0.00000,1.58359,0
3,swing_left,25.9999,1.41980,-1.80115,0.08023,0.16900,-0.00756,1.57153,0.24356,-0.03781,0.95738,-0.01259,-0.04352,0.02751,0.98860,0.96842,0.00000,0.00000,1.56383,0
3,swing_left,26.0180,1.23892,-1.84620,0.15168,0.07872,-0.11395,1.63416,0.25364,-0.06883,0.96976,0.02696,-0.08889,0.02318,1.00474,0.96518,0.00000,0.00000,1.60495,0
3,swing_left,26.0358,1.25922,-1.84620,0.15168,-0.00333,-0.32737,1.66467,0.25364,-0.06883,0.96976,0.02696,-0.08889,0.02318,1.00474,0.96518,0.00000,0.00000,1.62830,0
3,swing_left,26.0508,1.24407,-1.85592,0.14948,-0.00333,-0.32737,1.66467,0.25967,-0.09193,0.97202,0.02697,-0.06155,0.00592,1.01030,0.96211,0.00000,0.00000,1.63054,0
3,swing_left,26.0678,1.12728,-1.86998,0.19993,-0.06175,-0.61951,1.74903,0.27983,-0.11783,0.96292,0.00868,-0.08053,-0.02753,1.00965,0.95371,0.00000,0.00000,1.72325,0
3,swing_left,26.0822,1.25459,-1.83089,0.16523,-0.04367,-0.55284,1.60277,0.27659,-0.13041,0.95774,-0.02258,-0.03430,-0.00321,1.00537,0.95262,0.00000,0.00000,1.58653,0
3,swing_left,26.0995,1.36238,-1.81930,0.11316,-0.05862,-0.36657,1.31416,0.26004,-0.13239,0.95750,-0.01593,0.01959,0.00452,1.00097,0.95657,0.00000,0.00000,1.29033,0
3,swing_left,26.1157,1.39858,-1.77294,0.11027,-0.09023,-0.27277,1.00000,0.23695,-0.12438,0.95338,-0.04563,0.01888,-0.01987,0.99023,0.96279,0.00000,0.00000,0.97546,0
3,swing_left,26.1330,1.41827,-1.77294,0.11027,-0.09023,-0.27277,1.00000,0.23695,-0.12438,0.95338,-0.04563,0.01888,-0.01987,0.99023,0.96279,0.00000,0.00000,0.97546,0
3,swing_left,26.1518,1.28356,-1.84564,0.15947,-0.07561,-0.31699,0.57381,0.24077,-0.13040,0.94349,0.01849,-0.02324,-0.02407,0.98242,0.96037,0.00000,0.00000,0.57462,0
3,swing_left,26.1662,1.38365,-1.83919,0.11502,-0.07561,-0.31699,0.57381,0.24260,-0.12686,0.93536,0.00855,0.01745,-0.02221,0.97460,0.95974,0.00000,0.00000,0.57315,0
3,swing_left,26.1831,1.33590,-1.77960,0.15505,-0.06963,-0.37531,0.42637,0.23621,-0.13039,0.93429,-0.03442,-0.02176,0.01803,0.97247,0.96074,0.00000,0.00000,0.44304,0
3,swing_left,26.1997,1.19262,-1.84014,0.20450,-0.10505,-0.40847,0.19327,0.24392,-0.14725,0.94062,0.01916,-0.05779,0.01237,0.98283,0.95706,0.00000,0.00000,0.22010,0
3,swing_left,26.2166,1.13287,-1.86706,0.22540,-0.10152,-0.43109,0.02651,0.25390,-0.16773,0.94318,0.03479,-0.05901,0.00261,0.99105,0.95169,0.00000,0.00000,0.07218,0
3,swing_left,26.2350,1.14340,-1.86706,0.22540,-0.06695,-0.35255,-0.10017,0.25390,-0.16773,0.94318,0.03479,-0.05901,0.00261,0.99105,0.95169,0.00000,0.00000,-0.05282,0
3,swing_left,26.2507,1.06705,-1.90094,0.23832,-0.01386,-0.17432,-0.15918,0.27245,-0.18902,0.94574,0.05384,-0.05551,0.00644,1.00219,0.94367,0.00000,0.00000,-0.12110,0
3,swing_left,26.2681,1.12451,-1.89690,0.21620,0.05611,-0.06773,-0.12927,0.28389,-0.19693,0.94001,0.02678,-0.01606,-0.02134,1.00150,0.93861,0.00000,0.00000,-0.09211,0
3,swing_left,26.2850,1.18165,-1.88878,0.19352,0.05611,-0.06773,-0.12927,0.29411,-0.19765,0.93330,0.01107,0.00635,-0.00612,0.99830,0.93488,0.00000,0.00000,-0.09091,0
3,swing_left,26.3000,1.16073,-1.88827,0.20200,0.08477,0.01597,-0.07521,0.29699,-0.19760,0.93386,0.01351,-0.00610,0.01110,0.99968,0.93417,0.00000,0.00000,-0.04823,0
3,swing_left,26.3181,1.09296,-1.90885,0.22057,0.06260,-0.01132,-0.04931,0.30682,-0.20472,0.94055,0.03033,-0.02323,0.01852,1.01029,0.93097,0.00000,0.00000,-0.02460,0
3,swing_left,26.3339,1.09489,-1.90885,0.22057,0.06260,-0.01132,-0.04931,0.30682,-0.20472,0.94055,0.03033,-0.02323,0.01852,1.01029,0.93097,0.00000,0.00000,-0.02460,0
3,swing_left,26.3490,1.07580,-1.93309,0.21827,0.01414,-0.15756,0.03700,0.31991,-0.21059,0.94352,0.03559,-0.01189,-0.00558,1.01830,0.92657,0.00000,0.00000,0.07132,0
3,swing_left,26.3682,1.12813,-1.94575,0.18845,-0.02881,-0.24891,0.12317,0.33040,-0.20609,0.93461,0.02718,0.01989,-0.02608,1.01248,0.92308,0.00000,0.00000,0.15496,0
3,swing_left,26.3836,1.13261,-1.93219,0.18943,-0.03697,-0.18892,0.13801,0.33481,-0.20015,0.92738,0.00812,0.01419,-0.02015,1.00607,0.92178,0.00000,0.00000,0.15250,0
3,swing_left,26.4021,1.16712,-1.92391,0.18463,-0.03221,-0.08317,0.05907,0.33565,-0.19587,0.92257,0.00034,0.01443,-0.01095,1.00108,0.92157,0.00000,0.00000,0.05991,0
3,swing_left,26.4157,1.15844,-1.92391,0.18463,-0.01262,-0.01887,-0.02093,0.33565,-0.19587,0.92257,0.00034,0.01443,-0.01095,1.00108,0.92157,0.00000,0.00000,-0.01983,0
3,swing_left,26.4335,1.21116,-1.92056,0.16879,-0.01262,-0.01887,-0.02093,0.33358,-0.18788,0.91741,-0.00422,0.02410,-0.01446,0.99409,0.92286,0.00000,0.00000,-0.01999,0
3,swing_left,26.4495,1.21288,-1.92095,0.16650,0.00794,-0.00330,-0.06189,0.33212,-0.18033,0.91399,-0.00129,0.01827,-0.00812,0.98904,0.92412,0.00000,0.00000,-0.05392,0
3,swing_left,26.4665,1.18529,-1.91894,0.17894,0.01992,-0.01905,-0.07697,0.33265,-0.17886,0.91461,0.00129,0.00182,0.00553,0.98952,0.92429,0.00000,0.00000,-0.06101,0
3,swing_left,26.4819,1.11922,-1.93318,0.19986,0.02421,-0.05702,-0.08139,0.33564,-0.18286,0.91634,0.01345,-0.01661,0.00440,0.99286,0.92293,0.00000,0.00000,-0.05643,0
3,swing_left,26.4995,1.08412,-1.96564,0.19250,0.03777,-0.05970,-0.10232,0.34558,-0.18638,0.91478,0.03175,-0.00481,-0.00934,0.99548,0.91893,0.00000,0.00000,-0.06974,0
3,swing_left,26.5150,1.08449,-1.96564,0.19250,0.06988,0.01291,-0.08024,0.34558,-0.18638,0.91478,0.03175,-0.00481,-0.00934,0.99548,0.91893,0.00000,0.00000,-0.05189,0
3,swing_left,26.5351,1.16117,-1.95028,0.17414,0.06988,0.01291,-0.08024,0.35128,-0.18308,0.91207,0.01128,0.01090,-0.00297,0.99438,0.91723,0.00000,0.00000,-0.05129,0
3,swing_left,26.5508,1.24990,-1.89779,0.15684,0.09496,0.07516,-0.02202,0.34425,-0.17653,0.91718,-0.02601,0.01985,0.02110,0.99544,0.92139,0.00000,0.00000,-0.00077,0
3,swing_left,26.5666,1.22907,-1.90734,0.16184,0.08292,0.03692,-0.00493,0.33885,-0.17220,0.92509,-0.00864,0.00894,0.01878,1.00013,0.92497,0.00000,0.00000,0.01718,0
3,swing_left,26.5848,1.18417,-1.93100,0.16455,0.05587,-0.03034,0.00683,0.34079,-0.16980,0.92701,0.00914,0.00495,0.00208,1.00215,0.92501,0.00000,0.00000,0.03046,0
3,swing_left,26.5996,1.20629,-1.92374,0.16181,0.05014,-0.02889,-0.01649,0.34202,-0.16795,0.92672,0.00059,0.00615,0.00335,1.00200,0.92487,0.00000,0.00000,0.00671,0
3,swing_left,26.6168,1.20317,-1.92374,0.16181,0.04940,0.01146,-0.07411,0.34153,-0.16785,0.92926,0.00059,0.00615,0.00335,1.00416,0.92541,0.00000,0.00000,-0.05370,0
3,swing_left,26.6340,1.19804,-1.91411,0.16481,0.04940,0.01146,-0.07411,0.34104,-0.16775,0.93181,-0.00277,0.00060,0.01448,1.00634,0.92594,0.00000,0.00000,-0.05379,0
3,swing_left,26.6494,1.19703,-1.92628,0.16354,0.04755,-0.01402,-0.11703,0.34131,-0.16721,0.93242,0.00534,0.00285,0.00130,1.00691,0.92603,0.00000,0.00000,-0.08992,0
3,swing_left,26.6702,1.17799,-1.94556,0.15950,0.04755,-0.01402,-0.11703,0.34697,-0.16506,0.93038,0.01512,0.00593,-0.00986,1.00660,0.92428,0.00000,0.00000,-0.08948,0
3,swing_left,26.6834,1.20534,-1.93440,0.15381,0.05879,0.04593,-0.12171,0.35039,-0.16245,0.92853,0.00207,0.00881,-0.00228,1.00565,0.92331,0.00000,0.00000,-0.09931,0
3,swing_left,26.6993,1.25936,-1.90875,0.14548,0.05662,0.09753,-0.09010,0.34537,-0.15830,0.92831,-0.01975,0.01440,-0.00175,1.00304,0.92549,0.00000,0.00000,-0.07928,0
3,swing_left,26.7180,1.23950,-1.91291,0.14726,0.03391,0.08862,-0.07274,0.34025,-0.15398,0.92795,-0.00986,0.00789,-0.00019,1.00029,0.92769,0.00000,0.00000,-0.06959,1
4,swing_right,25.8536,1.41647,-1.90957,0.05336,0.14327,0.14006,1.48981,0.35828,-0.03045,0.92421,-0.05184,-0.01880,-0.05453,0.99170,0.93195,0.00000,0.00000,1.43589,0
4,swing_right,25.8690,1.60490,-1.91667,-0.02179,0.14327,0.14006,1.48981,0.35307,-0.01159,0.91524,-0.03876,0.03180,-0.04302,0.98105,0.93292,0.00000,0.00000,1.43978,0
4,swing_right,25.8850,1.48626,-1.93351,0.02196,0.22804,0.33071,1.49715,0.34784,-0.01316,0.91269,0.00400,-0.00862,0.01443,0.97682,0.93435,0.00000,0.00000,1.47562,0
4,swing_right,25.9009,1.41969,-1.89065,0.05882,0.32687,0.45528,1.58049,0.33769,-0.02427,0.91557,-0.03390,-0.03262,0.00163,0.97616,0.93793,0.00000,0.00000,1.58414,0
4,swing_right,25.9189,1.46596,-1.83888,0.03950,0.38456,0.35320,1.61669,0.32327,-0.03362,0.92969,-0.04863,-0.00735,0.07012,0.98486,0.94398,0.00000,0.00000,1.64029,0
4,swing_right,25.9370,1.47696,-1.83888,0.03950,0.36312,0.12947,1.61500,0.32327,-0.03362,0.92969,-0.04863,-0.00735,0.07012,0.98486,0.94398,0.00000,0.00000,1.63929,0
4,swing_right,25.9547,1.47638,-1.75879,0.04737,0.32394,0.05762,1.53534,0.29524,-0.03921,0.94912,-0.10537,-0.00895,0.04897,0.99475,0.95413,0.00000,0.00000,1.55878,0
4,swing_right,25.9673,1.53912,-1.78717,0.01140,0.32394,0.05762,1.53534,0.27372,-0.03063,0.95187,-0.06576,0.01959,-0.00578,0.99092,0.96059,0.00000,0.00000,1.56254,0
4,swing_right,25.9848,1.51310,-1.76208,0.03083,0.28818,0.05846,1.56445,0.25339,-0.02843,0.95191,-0.06669,-0.00186,0.01217,0.98546,0.96595,0.00000,0.00000,1.58359,0
4,swing_right,25.9999,1.41980,-1.80115,0.08023,0.16900,-0.00756,1.57153,0.24356,-0.03781,0.95738,-0.01259,-0.04352,0.02751,0.98860,0.96842,0.00000,0.00000,1.56383,0
4,swing_right,26.0180,1.23892,-1.84620,0.15168,0.07872,-0.11395,1.63416,0.25364,-0.06883,0.96976,0.02696,-0.08889,0.02318,1.00474,0.96518,0.00000,0.00000,1.60495,0
4,swing_right,26.0358,1.25922,-1.84620,0.15168,-0.00333,-0.32737,1.66467,0.25364,-0.06883,0.96976,0.02696,-0.08889,0.02318,1.00474,0.96518,0.00000,0.00000,1.62830,0
4,swing_right,26.0508,1.24407,-1.85592,0.14948,-0.00333,-0.32737,1.66467,0.25967,-0.09193,0.97202,0.02697,-0.06155,0.00592,1.01030,0.96211,0.00000,0.00000,1.63054,0
4,swing_right,26.0678,1.12728,-1.86998,0.19993,-0.06175,-0.61951,1.74903,0.27983,-0.11783,0.96292,0.00868,-0.08053,-0.02753,1.00965,0.95371,0.00000,0.00000,1.72325,0
4,swing_right,26.0822,1.25459,-1.83089,0.16523,-0.04367,-0.55284,1.60277,0.27659,-0.13041,0.95774,-0.02258,-0.03430,-0.00321,1.00537,0.95262,0.00000,0.00000,1.58653,0
4,swing_right,26.0995,1.36238,-1.81930,0.11316,-0.05862,-0.36657,1.31416,0.26004,-0.13239,0.95750,-0.01593,0.01959,0.00452,1.00097,0.95657,0.00000,0.00000,1.29033,0
4,swing_right,26.1157,1.39858,-1.77294,0.11027,-0.09023,-0.27277,1.00000,0.23695,-0.12438,0.95338,-0.04563,0.01888,-0.01987,0.99023,0.96279,0.00000,0.00000,0.97546,0
4,swing_right,26.1330,1.41827,-1.77294,0.11027,-0.09023,-0.27277,1.00000,0.23695,-0.12438,0.95338,-0.04563,0.01888,-0.01987,0.99023,0.96279,0.00000,0.00000,0.97546,0
4,swing_right,26.1518,1.28356,-1.84564,0.15947,-0.07561,-0.31699,0.57381,0.24077,-0.13040,0.94349,0.01849,-0.02324,-0.02407,0.98242,0.96037,0.00000,0.00000,0.57462,0
4,swing_right,26.1662,1.38365,-1.83919,0.11502,-0.07561,-0.31699,0.57381,0.24260,-0.12686,0.93536,0.00855,0.01745,-0.02221,0.97460,0.95974,0.00000,0.00000,0.57315,0
4,swing_right,26.1831,1.33590,-1.77960,0.15505,-0.06963,-0.37531,0.42637,0.23621,-0.13039,0.93429,-0.03442,-0.02176,0.01803,0.97247,0.96074,0.00000,0.00000,0.44304,0
4,swing_right,26.1997,1.19262,-1.84014,0.20450,-0.10505,-0.40847,0.19327,0.24392,-0.14725,0.94062,0.01916,-0.05779,0.01237,0.98283,0.95706,0.00000,0.00000,0.22010,0
4,swing_right,26.2166,1.13287,-1.86706,0.22540,-0.10152,-0.43109,0.02651,0.25390,-0.16773,0.94318,0.03479,-0.05901,0.00261,0.99105,0.95169,0.00000,0.00000,0.07218,0
4,swing_right,26.2350,1.14340,-1.86706,0.22540,-0.06695,-0.35255,-0.10017,0.25390,-0.16773,0.94318,0.03479,-0.05901,0.00261,0.99105,0.95169,0.00000,0.00000,-0.05282,0
4,swing_right,26.2507,1.06705,-1.90094,0.23832,-0.01386,-0.17432,-0.15918,0.27245,-0.18902,0.94574,0.05384,-0.05551,0.00644,1.00219,0.94367,0.00000,0.00000,-0.12110,0
4,swing_right,26.2681,1.12451,-1.89690,0.21620,0.05611,-0.06773,-0.12927,0.28389,-0.19693,0.94001,0.02678,-0.01606,-0.02134,1.00150,0.93861,0.00000,0.00000,-0.09211,0
4,swing_right,26.2850,1.18165,-1.88878,0.19352,0.05611,-0.06773,-0.12927,0.29411,-0.19765,0.93330,0.01107,0.00635,-0.00612,0.99830,0.93488,0.00000,0.00000,-0.09091,0
4,swing_right,26.3000,1.16073,-1.88827,0.20200,0.08477,0.01597,-0.07521,0.29699,-0.19760,0.93386,0.01351,-0.00610,0.01110,0.99968,0.93417,0.00000,0.00000,-0.04823,0
4,swing_right,26.3181,1.09296,-1.90885,0.22057,0.06260,-0.01132,-0.04931,0.30682,-0.20472,0.94055,0.03033,-0.02323,0.01852,1.01029,0.93097,0.00000,0.00000,-0.02460,0
4,swing_right,26.3339,1.09489,-1.90885,0.22057,0.06260,-0.01132,-0.04931,0.30682,-0.20472,0.94055,0.03033,-0.02323,0.01852,1.01029,0.93097,0.00000,0.00000,-0.02460,0
4,swing_right,26.3490,1.07580,-1.93309,0.21827,0.01414,-0.15756,0.03700,0.31991,-0.21059,0.94352,0.03559,-0.01189,-0.00558,1.01830,0.92657,0.00000,0.00000,0.07132,0
4,swing_right,26.3682,1.12813,-1.94575,0.18845,-0.02881,-0.24891,0.12317,0.33040,-0.20609,0.93461,0.02718,0.01989,-0.02608,1.01248,0.92308,0.00000,0.00000,0.15496,0
4,swing_right,26.3836,1.13261,-1.93219,0.18943,-0.03697,-0.18892,0.13801,0.33481,-0.20015,0.92738,0.00812,0.01419,-0.02015,1.00607,0.92178,0.00000,0.00000,0.15250,0
4,swing_right,26.4021,1.16712,-1.92391,0.18463,-0.03221,-0.08317,0.05907,0.33565,-0.19587,0.92257,0.00034,0.01443,-0.01095,1.00108,0.92157,0.00000,0.00000,0.05991,0
4,swing_right,26.4157,1.15844,-1.92391,0.18463,-0.01262,-0.01887,-0.02093,0.33565,-0.19587,0.92257,0.00034,0.01443,-0.01095,1.00108,0.92157,0.00000,0.00000,-0.01983,0
4,swing_right,26.4335,1.21116,-1.92056,0.16879,-0.01262,-0.01887,-0.02093,0.33358,-0.18788,0.91741,-0.00422,0.02410,-0.01446,0.99409,0.92286,0.00000,0.00000,-0.01999,0
4,swing_right,26.4495,1.21288,-1.92095,0.16650,0.00794,-0.00330,-0.06189,0.33212,-0.18033,0.91399,-0.00129,0.01827,-0.00812,0.98904,0.92412,0.00000,0.00000,-0.05392,0
4,swing_right,26.4665,1.18529,-1.91894,0.17894,0.01992,-0.01905,-0.07697,0.33265,-0.17886,0.91461,0.00129,0.00182,0.00553,0.98952,0.92429,0.00000,0.00000,-0.06101,0
4,swing_right,26.4819,1.11922,-1.93318,0.19986,0.02421,-0.05702,-0.08139,0.33564,-0.18286,0.91634,0.01345,-0.01661,0.00440,0.99286,0.92293,0.00000,0.00000,-0.05643,0
4,swing_right,26.4995,1.08412,-1.96564,0.19250,0.03777,-0.05970,-0.10232,0.34558,-0.18638,0.91478,0.03175,-0.00481,-0.00934,0.99548,0.91893,0.00000,0.00000,-0.06974,0
4,swing_right,26.5150,1.08449,-1.96564,0.19250,0.06988,0.01291,-0.08024,0.34558,-0.18638,0.91478,0.03175,-0.00481,-0.00934,0.99548,0.91893,0.00000,0.00000,-0.05189,0
4,swing_right,26.5351,1.16117,-1.95028,0.17414,0.06988,0.01291,-0.08024,0.35128,-0.18308,0.91207,0.01128,0.01090,-0.00297,0.99438,0.91723,0.00000,0.00000,-0.05129,0
4,swing_right,26.5508,1.24990,-1.89779,0.15684,0.09496,0.07516,-0.02202,0.34425,-0.17653,0.91718,-0.02601,0.01985,0.02110,0.99544,0.92139,0.00000,0.00000,-0.00077,0
4,swing_right,26.5666,1.22907,-1.90734,0.16184,0.08292,0.03692,-0.00493,0.33885,-0.17220,0.92509,-0.00864,0.00894,0.01878,1.00013,0.92497,0.00000,0.00000,0.01718,0
4,swing_right,26.5848,1.18417,-1.93100,0.16455,0.05587,-0.03034,0.00683,0.34079,-0.16980,0.92701,0.00914,0.00495,0.00208,1.00215,0.92501,0.00000,0.00000,0.03046,0
4,swing_right,26.5996,1.20629,-1.92374,0.16181,0.05014,-0.02889,-0.01649,0.34202,-0.16795,0.92672,0.00059,0.00615,0.00335,1.00200,0.92487,0.00000,0.00000,0.00671,0
4,swing_right,26.6168,1.20317,-1.92374,0.16181,0.04940,0.01146,-0.07411,0.34153,-0.16785,0.92926,0.00059,0.00615,0.00335,1.00416,0.92541,0.00000,0.00000,-0.05370,0
4,swing_right,26.6340,1.19804,-1.91411,0.16481,0.04940,0.01146,-0.07411,0.34104,-0.16775,0.93181,-0.00277,0.00060,0.01448,1.00634,0.92594,0.00000,0.00000,-0.05379,0
4,swing_right,26.6494,1.19703,-1.92628,0.16354,0.04755,-0.01402,-0.11703,0.34131,-0.16721,0.93242,0.00534,0.00285,0.00130,1.00691,0.92603,0.00000,0.00000,-0.08992,0
4,swing_right,26.6702,1.17799,-1.94556,0.15950,0.04755,-0.01402,-0.11703,0.34697,-0.16506,0.93038,0.01512,0.00593,-0.00986,1.00660,0.92428,0.00000,0.00000,-0.08948,0
4,swing_right,26.6834,1.20534,-1.93440,0.15381,0.05879,0.04593,-0.12171,0.35039,-0.16245,0.92853,0.00207,0.00881,-0.00228,1.00565,0.92331,0.00000,0.00000,-0.09931,0
4,swing_right,26.6993,1.25936,-1.90875,0.14548,0.05662,0.09753,-0.09010,0.34537,-0.15830,0.92831,-0.01975,0.01440,-0.00175,1.00304,0.92549,0.00000,0.00000,-0.07928,0
4,swing_right,26.7180,1.23950,-1.91291,0.14726,0.03391,0.08862,-0.07274,0.34025,-0.15398,0.92795,-0.00986,0.00789,-0.00019,1.00029,0.92769,0.00000,0.00000,-0.06959,0
4,swing_right,26.7363,1.24727,-1.91291,0.14726,0.03391,0.08862,-0.07274,0.34025,-0.15398,0.92795,-0.00986,0.00789,-0.00019,1.00029,0.92769,0.00000,0.00000,-0.06959,0
4,swing_right,26.7482,1.20753,-1.92004,0.16254,0.01039,0.05732,-0.07844,0.34048,-0.15649,0.93103,0.00426,-0.00872,0.01560,1.00361,0.92768,0.00000,0.00000,-0.07818,0
4,swing_right,26.7665,1.22670,-1.90726,0.15993,-0.00580,0.04482,-0.04377,0.33661,-0.15686,0.93127,-0.01244,-0.00153,-0.00445,1.00259,0.92887,0.00000,0.00000,-0.04961,0
4,swing_right,26.7812,1.16886,-1.91132,0.18405,-0.00856,0.02525,-0.02393,0.33530,-0.16314,0.93338,-0.00154,-0.02290,0.00857,1.00511,0.92864,0.00000,0.00000,-0.02918,0
4,swing_right,26.7985,1.21951,-1.91485,0.16282,0.00013,-0.01486,0.00072,0.33546,-0.16513,0.93477,-0.00077,0.00213,-0.00065,1.00677,0.92848,0.00000,0.00000,0.00315,0
4,swing_right,26.8144,1.22088,-1.91485,0.16282,-0.00571,-0.01284,0.02606,0.33546,-0.16513,0.93477,-0.00077,0.00213,-0.00065,1.00677,0.92848,0.00000,0.00000,0.02440,0
4,swing_right,26.8329,1.24410,-1.91957,0.14603,-0.00943,-0.00551,0.03086,0.33449,-0.15970,0.93064,-0.00097,0.01617,-0.01349,1.00174,0.92903,0.00000,0.00000,0.02640,0
4,swing_right,26.8477,1.22954,-1.92080,0.15124,-0.00943,-0.00551,0.03086,0.33522,-0.15676,0.92784,0.00224,0.00677,-0.00338,0.99891,0.92885,0.00000,0.00000,0.02637,0
4,swing_right,26.8663,1.23353,-1.91640,0.15141,-0.01767,-0.01777,0.01919,0.33499,-0.15515,0.92734,-0.00143,0.00492,-0.00091,0.99812,0.92908,0.00000,0.00000,0.01466,0
4,swing_right,26.8833,1.23462,-1.91208,0.15178,-0.02403,-0.02736,0.00813,0.33450,-0.15470,0.92886,-0.00312,0.00325,0.00414,0.99931,0.92951,0.00000,0.00000,0.00375,0
4,swing_right,26.8988,1.24393,-1.91892,0.14848,-0.03094,-0.04976,-0.00973,0.33378,-0.15241,0.92809,0.00136,0.00546,-0.00460,0.99799,0.92996,0.00000,0.00000,-0.01179,0
4,swing_right,26.9166,1.24075,-1.91892,0.14848,-0.02938,-0.02606,-0.04425,0.33378,-0.15241,0.92809,0.00136,0.00546,-0.00460,0.99799,0.92996,0.00000,0.00000,-0.04700,0
4,swing_right,26.9314,1.22244,-1.92592,0.15590,-0.02938,-0.02606,-0.04425,0.33652,-0.15277,0.92768,0.00766,-0.00281,0.00044,0.99858,0.92899,0.00000,0.00000,-0.04702,0
4,swing_right,26.9487,1.21378,-1.91968,0.16112,-0.02073,-0.03339,-0.05403,0.33733,-0.15490,0.92725,-0.00059,-0.00520,-0.00155,0.99879,0.92838,0.00000,0.00000,-0.05198,0
4,swing_right,26.9640,1.20758,-1.92853,0.15979,-0.01900,-0.05154,-0.07962,0.33762,-0.15591,0.92406,0.00310,-0.00090,-0.01262,0.99608,0.92769,0.00000,0.00000,-0.07224,0
4,swing_right,26.9816,1.23019,-1.91914,0.15110,-0.02228,-0.00615,-0.18614,0.33653,-0.15414,0.92005,-0.00682,0.00707,-0.01213,0.99171,0.92773,0.00000,0.00000,-0.17930,0
4,swing_right,26.9968,1.24275,-1.91042,0.15304,-0.03990,0.10342,-0.39248,0.33339,-0.15215,0.91710,-0.01024,0.00252,-0.00246,0.98761,0.92861,0.00000,0.00000,-0.39386,0
4,swing_right,27.0153,1.23081,-1.91042,0.15304,-0.07722,0.19322,-0.69968,0.33339,-0.15215,0.91710,-0.01024,0.00252,-0.00246,0.98761,0.92861,0.00000,0.00000,-0.70556,0
4,swing_right,27.0313,1.23669,-1.88897,0.15907,-0.07722,0.19322,-0.69968,0.32838,-0.15327,0.92183,-0.01930,-0.00523,0.01660,0.99051,0.93067,0.00000,0.00000,-0.70667,0
4,swing_right,27.0475,1.30757,-1.84523,0.14171,-0.13806,0.23649,-1.06207,0.31446,-0.15153,0.92876,-0.04719,0.01082,0.02058,0.99219,0.93607,0.00000,0.00000,-1.07405,0
4,swing_right,27.0660,1.39555,-1.79788,0.11084,-0.18581,0.23365,-1.43019,0.29081,-0.14250,0.93449,-0.07126,0.03397,0.01564,0.98901,0.94487,0.00000,0.00000,-1.43964,0
4,swing_right,27.0808,1.38473,-1.83616,0.09719,-0.22947,0.13593,-1.78605,0.27822,-0.13013,0.94160,-0.01743,0.03317,0.01803,0.99043,0.95070,0.00000,0.00000,-1.78031,0
4,swing_right,27.0964,1.41016,-1.89983,0.06936,-0.30418,-0.10630,-2.06693,0.28435,-0.11575,0.93285,0.02122,0.05006,-0.03793,0.98207,0.94988,0.00000,0.00000,-2.03888,0
4,swing_right,27.1123,1.40609,-1.89983,0.06936,-0.35370,-0.20268,-2.40959,0.28435,-0.11575,0.93285,0.02122,0.05006,-0.03793,0.98207,0.94988,0.00000,0.00000,-2.36734,0
4,swing_right,27.1331,1.54666,-1.94523,0.00989,-0.31238,0.20075,-2.74733,0.29443,-0.08870,0.91223,0.04096,0.07963,-0.05876,0.96267,0.94761,0.00000,0.00000,-2.71744,0
4,swing_right,27.1470,1.54478,-1.98086,0.00952,-0.31238,0.20075,-2.74733,0.31586,-0.06618,0.89779,0.05871,0.05724,-0.03614,0.95403,0.94105,0.00000,0.00000,-2.70272,0
4,swing_right,27.1638,1.53263,-1.95515,0.01346,-0.22636,0.50123,-2.92075,0.33092,-0.05113,0.89899,0.03893,0.03785,0.01541,0.95932,0.93711,0.00000,0.00000,-2.84184,0
4,swing_right,27.1815,1.54387,-1.94194,-0.00874,-0.15402,0.46946,-2.95057,0.34038,-0.03505,0.90517,0.01960,0.04372,0.01981,0.96769,0.93539,0.00000,0.00000,-2.83112,0
4,swing_right,27.1974,1.50726,-1.94194,-0.00874,-0.13968,0.22811,-2.97429,0.34038,-0.03505,0.90517,0.01960,0.04372,0.01981,0.96769,0.93539,0.00000,0.00000,-2.83952,0
4,swing_right,27.2184,1.47793,-1.88089,0.00304,-0.11661,0.29019,-2.97192,0.34334,-0.00888,0.92709,-0.03126,0.00578,0.04686,0.98867,0.93772,0.00000,0.00000,-2.82993,0
4,swing_right,27.2344,1.46118,-1.88089,0.00304,-0.10550,0.36082,-2.94716,0.34334,-0.00888,0.92709,-0.03126,0.00578,0.04686,0.98867,0.93772,0.00000,0.00000,-2.80349,0
4,swing_right,27.2463,1.63765,-1.95227,-0.06897,-0.10550,0.36082,-2.94716,0.35336,0.01192,0.93363,0.02909,0.05904,0.01980,0.99833,0.93519,0.00000,0.00000,-2.78919,0
4,swing_right,27.2645,1.57020,-1.96263,-0.05328,-0.08658,0.36580,-2.84798,0.35895,0.02302,0.93156,0.02601,0.03074,0.00011,0.99858,0.93288,0.00000,0.00000,-2.67951,0
4,swing_right,27.2802,1.51407,-1.92189,-0.03665,-0.03589,0.48721,-2.76302,0.36392,0.02875,0.94699,-0.00330,0.00970,0.03761,1.01492,0.93307,0.00000,0.00000,-2.57716,0
4,swing_right,27.2982,1.54741,-1.90288,-0.06162,-0.06730,0.53322,-2.72686,0.35816,0.03762,0.94764,-0.02629,0.02518,0.01470,1.01377,0.93478,0.00000,0.00000,-2.55299,0
4,swing_right,27.3153,1.52210,-1.90288,-0.06162,-0.07106,0.80039,-2.77501,0.35816,0.03762,0.94764,-0.02629,0.02518,0.01470,1.01377,0.93478,0.00000,0.00000,-2.58941,0
4,swing_right,27.3307,1.54253,-1.86413,-0.08096,-0.07106,0.80039,-2.77501,0.33659,0.04850,0.94158,-0.05865,0.02950,-0.02139,1.00110,0.94054,0.00000,0.00000,-2.59512,0
4,swing_right,27.3464,1.53628,-1.82493,-0.07823,-0.08227,1.05258,-2.89323,0.30954,0.05287,0.94067,-0.06718,0.02270,-0.00760,0.99170,0.94854,0.00000,0.00000,-2.71391,0
4,swing_right,27.3638,1.54674,-1.84333,-0.08874,-0.04270,1.05263,-3.01779,0.29783,0.06139,0.94598,-0.02523,0.02872,0.02937,0.99366,0.95202,0.00000,0.00000,-2.82076,0
4,swing_right,27.3807,1.59352,-1.77758,-0.12301,0.04450,1.09286,-2.94005,0.27420,0.07589,0.94783,-0.07909,0.04160,-0.01776,0.98961,0.95778,0.00000,0.00000,-2.71979,0
4,swing_right,27.3970,1.63173,-1.79355,-0.14957,0.06127,0.88011,-2.81927,0.25432,0.09201,0.93913,-0.04474,0.05095,-0.01390,0.97730,0.96095,0.00000,0.00000,-2.61036,0
4,swing_right,27.4125,1.62043,-1.79355,-0.14957,0.11438,0.63859,-2.61711,0.25432,0.09201,0.93913,-0.04474,0.05095,-0.01390,0.97730,0.96095,0.00000,0.00000,-2.42502,0
4,swing_right,27.4306,1.62002,-1.85989,-0.15609,0.14805,0.13839,-2.23998,0.25722,0.11009,0.94146,0.02696,0.04679,0.01402,0.98215,0.95857,0.00000,0.00000,-2.09289,0
4,swing_right,27.4494,1.50456,-1.83226,-0.11342,0.14805,0.13839,-2.23998,0.26820,0.11745,0.96858,0.01721,0.00832,0.09801,1.01186,0.95722,0.00000,0.00000,-2.08885,0
4,swing_right,27.4614,1.58453,-1.81478,-0.15205,0.05712,-0.10587,-1.86569,0.26815,0.12687,0.98192,-0.01711,0.03236,0.02649,1.02575,0.95727,0.00000,0.00000,-1.78413,0
4,swing_right,27.4799,1.53073,-1.72398,-0.13370,-0.06370,-0.18179,-1.69757,0.23942,0.13072,0.98181,-0.08908,0.00180,-0.00807,1.01900,0.96350,0.00000,0.00000,-1.67390,0
4,swing_right,27.4966,1.48045,-1.76269,-0.09810,-0.14237,-0.06873,-1.65483,0.22623,0.12626,0.98467,-0.02791,-0.02392,0.03615,1.01818,0.96708,0.00000,0.00000,-1.64052,0
4,swing_right,27.5109,1.47089,-1.76269,-0.09810,-0.17743,-0.10254,-1.61533,0.22623,0.12626,0.98467,-0.02791,-0.02392,0.03615,1.01818,0.96708,0.00000,0.00000,-1.61430,0
4,swing_right,27.5287,1.54353,-1.75182,-0.14867,-0.17743,-0.10254,-1.61533,0.21680,0.13030,0.98650,-0.03818,0.01830,-0.01053,1.01841,0.96866,0.00000,0.00000,-1.61560,0
4,swing_right,27.5437,1.50265,-1.77381,-0.12545,-0.21149,-0.20579,-1.61821,0.20535,0.12916,0.98140,-0.00673,-0.00493,-0.01653,1.01094,0.97078,0.00000,0.00000,-1.64018,0
4,swing_right,27.5621,1.57861,-1.78492,-0.17029,-0.28648,-0.23710,-1.69503,0.20321,0.13341,0.98004,0.00783,0.03737,-0.00955,1.00974,0.97059,0.00000,0.00000,-1.73416,0
4,swing_right,27.5779,1.53977,-1.77731,-0.14718,-0.32802,-0.40123,-1.63909,0.20644,0.14095,0.97388,-0.00159,0.00717,0.00398,1.00544,0.96860,0.00000,0.00000,-1.71123,0
4,swing_right,27.5964,1.53840,-1.77731,-0.14718,-0.37425,-0.38206,-1.48295,0.20644,0.14095,0.97388,-0.00159,0.00717,0.00398,1.00544,0.96860,0.00000,0.00000,-1.56679,0
4,swing_right,27.6120,1.53971,-1.81506,-0.14674,-0.40321,-0.31556,-1.26163,0.21255,0.14164,0.97300,0.02900,0.00599,-0.00389,1.00596,0.96723,0.00000,0.00000,-1.34991,0
4,swing_right,27.6275,1.53662,-1.80943,-0.14971,-0.41548,-0.48723,-0.87236,0.22091,0.14519,0.97701,0.01885,0.00780,0.00854,1.01214,0.96529,0.00000,0.00000,-1.00266,0
4,swing_right,27.6430,1.49439,-1.77367,-0.12852,-0.41548,-0.48723,-0.87236,0.21672,0.14073,0.97502,-0.01848,-0.01358,-0.01125,1.00868,0.96663,0.00000,0.00000,-1.00050,0
4,swing_right,27.6643,1.43653,-1.74102,-0.09343,-0.36712,-0.47350,-0.58302,0.20538,0.12710,0.98133,-0.03494,-0.03282,0.01022,1.01061,0.97102,0.00000,0.00000,-0.70028,0
4,swing_right,27.6791,1.42808,-1.78179,-0.09152,-0.29208,-0.44239,-0.37716,0.20324,0.12097,0.98006,0.00854,-0.02816,0.00871,1.00819,0.97209,0.00000,0.00000,-0.47859,0
4,swing_right,27.6963,1.42998,-1.78179,-0.09152,-0.17094,-0.52233,-0.24453,0.20324,0.12097,0.98006,0.00854,-0.02816,0.00871,1.00819,0.97209,0.00000,0.00000,-0.33483,0
4,swing_right,27.7136,1.47893,-1.77463,-0.12062,-0.07238,-0.52315,-0.14879,0.20046,0.12057,0.97944,0.00112,0.00014,-0.00421,1.00698,0.97264,0.00000,0.00000,-0.22176,0
4,swing_right,27.7287,1.47503,-1.76505,-0.11623,-0.03093,-0.24986,-0.14662,0.19785,0.11858,0.98170,-0.00553,-0.00226,-0.00413,1.00844,0.97349,0.00000,0.00000,-0.17818,0
4,swing_right,27.7464,1.48407,-1.76261,-0.12139,-0.03093,-0.24986,-0.14662,0.19702,0.11828,0.98349,-0.00590,0.00402,0.00064,1.00998,0.97377,0.00000,0.00000,-0.17807,0
4,swing_right,27.7636,1.47575,-1.75653,-0.11377,-0.02864,-0.01252,-0.15958,0.19545,0.11769,0.98380,-0.00881,-0.00221,0.00949,1.00991,0.97415,0.00000,0.00000,-0.16246,0
4,swing_right,27.7796,1.44558,-1.75725,-0.09801,-0.02037,-0.01622,-0.08813,0.19483,0.11391,0.98863,-0.00558,-0.01353,0.01455,1.01407,0.97492,0.00000,0.00000,-0.09166,0
4,swing_right,27.7970,1.43973,-1.75725,-0.09801,-0.02633,-0.13478,0.00240,0.19483,0.11391,0.98863,-0.00558,-0.01353,0.01455,1.01407,0.97492,0.00000,0.00000,-0.01786,0
4,swing_right,27.8118,1.43476,-1.75968,-0.08908,-0.00828,-0.19991,0.07331,0.19214,0.10756,0.98998,-0.00292,-0.01755,-0.00018,1.01418,0.97615,0.00000,0.00000,0.04879,0
4,swing_right,27.8302,1.44765,-1.78121,-0.09969,0.03611,-0.17968,0.07926,0.19338,0.10444,0.98472,0.01234,-0.00593,-0.02152,1.00894,0.97599,0.00000,0.00000,0.06567,0
4,swing_right,27.8464,1.46144,-1.80513,-0.10861,0.03611,-0.17968,0.07926,0.20309,0.10575,0.98317,0.03034,0.00386,-0.00533,1.00948,0.97393,0.00000,0.00000,0.06563,0
4,swing_right,27.8627,1.46258,-1.80591,-0.11221,0.03639,-0.06775,0.05819,0.21212,0.10771,0.98175,0.02180,0.00543,-0.00525,1.01016,0.97187,0.00000,0.00000,0.05697,0
4,swing_right,27.8807,1.47532,-1.79306,-0.11701,0.03639,-0.06775,0.05819,0.21391,0.10954,0.97839,0.00535,0.00738,-0.00820,1.00747,0.97113,0.00000,0.00000,0.05687,0
4,swing_right,27.8961,1.47504,-1.79306,-0.11701,0.02172,-0.02550,0.06808,0.21391,0.10954,0.97839,0.00535,0.00738,-0.00820,1.00747,0.97113,0.00000,0.00000,0.06795,0
4,swing_right,27.9136,1.50656,-1.81537,-0.13435,0.00611,0.02768,0.07143,0.22109,0.11576,0.97472,0.01935,0.01845,-0.01130,1.00616,0.96875,0.00000,0.00000,0.07372,0
4,swing_right,27.9289,1.48818,-1.80319,-0.12146,0.01132,0.02130,0.10955,0.22441,0.11865,0.97197,0.00422,0.00253,-0.00595,1.00457,0.96755,0.00000,0.00000,0.11104,0
4,swing_right,27.9459,1.50856,-1.78924,-0.13251,0.01132,0.02130,0.10955,0.22209,0.12084,0.97004,-0.00824,0.01069,-0.00667,1.00244,0.96767,0.00000,0.00000,0.11108,0
4,swing_right,27.9604,1.52473,-1.80719,-0.13929,0.02130,0.00731,0.10474,0.22516,0.12580,0.96703,0.00637,0.01280,-0.00591,1.00083,0.96622,0.00000,0.00000,0.10691,0
4,swing_right,27.9779,1.49061,-1.79386,-0.12131,0.02087,0.02795,0.08060,0.22335,0.12569,0.96590,-0.00435,-0.00500,-0.00047,0.99933,0.96656,0.00000,0.00000,0.08609,0
4,swing_right,27.9945,1.48434,-1.79386,-0.12131,0.00531,0.13786,0.03129,0.22335,0.12569,0.96590,-0.00435,-0.00500,-0.00047,0.99933,0.96656,0.00000,0.00000,0.04877,0
4,swing_right,28.0094,1.49914,-1.80274,-0.12911,-0.01401,0.18026,0.03917,0.22434,0.12551,0.96633,0.00294,0.00285,-0.00409,0.99994,0.96639,0.00000,0.00000,0.05734,0
4,swing_right,28.0258,1.50223,-1.79238,-0.13075,-0.01401,0.18026,0.03917,0.22386,0.12662,0.96638,-0.00584,0.00383,0.00136,1.00002,0.96636,0.00000,0.00000,0.05754,0
4,swing_right,28.0456,1.53844,-1.78458,-0.14924,-0.01739,0.11671,0.05104,0.21849,0.13135,0.96155,-0.01263,0.01455,-0.01329,0.99477,0.96660,0.00000,0.00000,0.06093,0
4,swing_right,28.0623,1.51850,-1.78805,-0.14064,0.00435,0.04180,0.03970,0.21624,0.13423,0.96136,-0.00411,0.00510,-0.00032,0.99449,0.96670,0.00000,0.00000,0.04497,0
4,swing_right,28.0787,1.53199,-1.86681,-0.14533,0.01394,0.03739,0.04130,0.22763,0.13741,0.96087,0.06462,0.00923,-0.00260,0.99698,0.96378,0.00000,0.00000,0.04814,0
4,swing_right,28.0984,1.53539,-1.86681,-0.14533,0.00015,-0.12490,0.04640,0.22763,0.13741,0.96087,0.06462,0.00923,-0.00260,0.99698,0.96378,0.00000,0.00000,0.02754,0
4,swing_right,28.1136,1.45733,-1.83641,-0.10911,-0.00991,-0.10122,0.21863,0.25236,0.13477,0.97112,0.01204,-0.02443,0.00081,1.01238,0.95924,0.00000,0.00000,0.19378,0
4,swing_right,28.1265,1.37610,-1.77289,-0.05858,-0.00964,0.19453,0.32921,0.23625,0.11700,0.97547,-0.03284,-0.05757,0.01727,1.01047,0.96537,0.00000,0.00000,0.33808,0
4,swing_right,28.1453,1.50758,-1.75018,-0.13574,0.02523,0.06385,0.41410,0.22038,0.11649,0.96940,-0.05064,0.01344,-0.03333,1.00094,0.96849,0.00000,0.00000,0.41404,0
4,swing_right,28.1603,1.47247,-1.71358,-0.10946,0.05309,0.10470,0.36420,0.19781,0.11512,0.96793,-0.05856,-0.00758,0.00065,0.99462,0.97316,0.00000,0.00000,0.37711,1
5,twist_left,27.4306,1.62002,-1.85989,-0.15609,0.14805,0.13839,-2.23998,0.25722,0.11009,0.94146,0.02696,0.04679,0.01402,0.98215,0.95857,0.00000,0.00000,-2.09289,0
5,twist_left,27.4494,1.50456,-1.83226,-0.11342,0.14805,0.13839,-2.23998,0.26820,0.11745,0.96858,0.01721,0.00832,0.09801,1.01186,0.95722,0.00000,0.00000,-2.08885,0
5,twist_left,27.4614,1.58453,-1.81478,-0.15205,0.05712,-0.10587,-1.86569,0.26815,0.12687,0.98192,-0.01711,0.03236,0.02649,1.02575,0.95727,0.00000,0.00000,-1.78413,0
5,twist_left,27.4799,1.53073,-1.72398,-0.13370,-0.06370,-0.18179,-1.69757,0.23942,0.13072,0.98181,-0.08908,0.00180,-0.00807,1.01900,0.96350,0.00000,0.00000,-1.67390,0
5,twist_left,27.4966,1.48045,-1.76269,-0.09810,-0.14237,-0.06873,-1.65483,0.22623,0.12626,0.98467,-0.02791,-0.02392,0.03615,1.01818,0.96708,0.00000,0.00000,-1.64052,0
5,twist_left,27.5109,1.47089,-1.76269,-0.09810,-0.17743,-0.10254,-1.61533,0.22623,0.12626,0.98467,-0.02791,-0.02392,0.03615,1.01818,0.96708,0.00000,0.00000,-1.61430,0
5,twist_left,27.5287,1.54353,-1.75182,-0.14867,-0.17743,-0.10254,-1.61533,0.21680,0.13030,0.98650,-0.03818,0.01830,-0.01053,1.01841,0.96866,0.00000,0.00000,-1.61560,0
5,twist_left,27.5437,1.50265,-1.77381,-0.12545,-0.21149,-0.20579,-1.61821,0.20535,0.12916,0.98140,-0.00673,-0.00493,-0.01653,1.01094,0.97078,0.00000,0.00000,-1.64018,0
5,twist_left,27.5621,1.57861,-1.78492,-0.17029,-0.28648,-0.23710,-1.69503,0.20321,0.13341,0.98004,0.00783,0.03737,-0.00955,1.00974,0.97059,0.00000,0.00000,-1.73416,0
5,twist_left,27.5779,1.53977,-1.77731,-0.14718,-0.32802,-0.40123,-1.63909,0.20644,0.14095,0.97388,-0.00159,0.00717,0.00398,1.00544,0.96860,0.00000,0.00000,-1.71123,0
5,twist_left,27.5964,1.53840,-1.77731,-0.14718,-0.37425,-0.38206,-1.48295,0.20644,0.14095,0.97388,-0.00159,0.00717,0.00398,1.00544,0.96860,0.00000,0.00000,-1.56679,0
5,twist_left,27.6120,1.53971,-1.81506,-0.14674,-0.40321,-0.31556,-1.26163,0.21255,0.14164,0.97300,0.02900,0.00599,-0.00389,1.00596,0.96723,0.00000,0.00000,-1.34991,0
5,twist_left,27.6275,1.53662,-1.80943,-0.14971,-0.41548,-0.48723,-0.87236,0.22091,0.14519,0.97701,0.01885,0.00780,0.00854,1.01214,0.96529,0.00000,0.00000,-1.00266,0
5,twist_left,27.6430,1.49439,-1.77367,-0.12852,-0.41548,-0.48723,-0.87236,0.21672,0.14073,0.97502,-0.01848,-0.01358,-0.01125,1.00868,0.96663,0.00000,0.00000,-1.00050,0
5,twist_left,27.6643,1.43653,-1.74102,-0.09343,-0.36712,-0.47350,-0.58302,0.20538,0.12710,0.98133,-0.03494,-0.03282,0.01022,1.01061,0.97102,0.00000,0.00000,-0.70028,0
5,twist_left,27.6791,1.42808,-1.78179,-0.09152,-0.29208,-0.44239,-0.37716,0.20324,0.12097,0.98006,0.00854,-0.02816,0.00871,1.00819,0.97209,0.00000,0.00000,-0.47859,0
5,twist_left,27.6963,1.42998,-1.78179,-0.09152,-0.17094,-0.52233,-0.24453,0.20324,0.12097,0.98006,0.00854,-0.02816,0.00871,1.00819,0.97209,0.00000,0.00000,-0.33483,0
5,twist_left,27.7136,1.47893,-1.77463,-0.12062,-0.07238,-0.52315,-0.14879,0.20046,0.12057,0.97944,0.00112,0.00014,-0.00421,1.00698,0.97264,0.00000,0.00000,-0.22176,0
5,twist_left,27.7287,1.47503,-1.76505,-0.11623,-0.03093,-0.24986,-0.14662,0.19785,0.11858,0.98170,-0.00553,-0.00226,-0.00413,1.00844,0.97349,0.00000,0.00000,-0.17818,0
5,twist_left,27.7464,1.48407,-1.76261,-0.12139,-0.03093,-0.24986,-0.14662,0.19702,0.11828,0.98349,-0.00590,0.00402,0.00064,1.00998,0.97377,0.00000,0.00000,-0.17807,0
5,twist_left,27.7636,1.47575,-1.75653,-0.11377,-0.02864,-0.01252,-0.15958,0.19545,0.11769,0.98380,-0.00881,-0.00221,0.00949,1.00991,0.97415,0.00000,0.00000,-0.16246,0
5,twist_left,27.7796,1.44558,-1.75725,-0.09801,-0.02037,-0.01622,-0.08813,0.19483,0.11391,0.98863,-0.00558,-0.01353,0.01455,1.01407,0.97492,0.00000,0.00000,-0.09166,0
5,twist_left,27.7970,1.43973,-1.75725,-0.09801,-0.02633,-0.13478,0.00240,0.19483,0.11391,0.98863,-0.00558,-0.01353,0.01455,1.01407,0.97492,0.00000,0.00000,-0.01786,0
5,twist_left,27.8118,1.43476,-1.75968,-0.08908,-0.00828,-0.19991,0.07331,0.19214,0.10756,0.98998,-0.00292,-0.01755,-0.00018,1.01418,0.97615,0.00000,0.00000,0.04879,0
5,twist_left,27.8302,1.44765,-1.78121,-0.09969,0.03611,-0.17968,0.07926,0.19338,0.10444,0.98472,0.01234,-0.00593,-0.02152,1.00894,0.97599,0.00000,0.00000,0.06567,0
5,twist_left,27.8464,1.46144,-1.80513,-0.10861,0.03611,-0.17968,0.07926,0.20309,0.10575,0.98317,0.03034,0.00386,-0.00533,1.00948,0.97393,0.00000,0.00000,0.06563,0
5,twist_left,27.8627,1.46258,-1.80591,-0.11221,0.03639,-0.06775,0.05819,0.21212,0.10771,0.98175,0.02180,0.00543,-0.00525,1.01016,0.97187,0.00000,0.00000,0.05697,0
5,twist_left,27.8807,1.47532,-1.79306,-0.11701,0.03639,-0.06775,0.05819,0.21391,0.10954,0.97839,0.00535,0.00738,-0.00820,1.00747,0.97113,0.00000,0.00000,0.05687,0
5,twist_left,27.8961,1.47504,-1.79306,-0.11701,0.02172,-0.02550,0.06808,0.21391,0.10954,0.97839,0.00535,0.00738,-0.00820,1.00747,0.97113,0.00000,0.00000,0.06795,0
5,twist_left,27.9136,1.50656,-1.81537,-0.13435,0.00611,0.02768,0.07143,0.22109,0.11576,0.97472,0.01935,0.01845,-0.01130,1.00616,0.96875,0.00000,0.00000,0.07372,0
5,twist_left,27.9289,1.48818,-1.80319,-0.12146,0.01132,0.02130,0.10955,0.22441,0.11865,0.97197,0.00422,0.00253,-0.00595,1.00457,0.96755,0.00000,0.00000,0.11104,0
5,twist_left,27.9459,1.50856,-1.78924,-0.13251,0.01132,0.02130,0.10955,0.22209,0.12084,0.97004,-0.00824,0.01069,-0.00667,1.00244,0.96767,0.00000,0.00000,0.11108,0
5,twist_left,27.9604,1.52473,-1.80719,-0.13929,0.02130,0.00731,0.10474,0.22516,0.12580,0.96703,0.00637,0.01280,-0.00591,1.00083,0.96622,0.00000,0.00000,0.10691,0
